ax,ay,az
80.0,24.0,1133.0 
76.0,24.0,1128.0 
81.0,26.0,1138.0 
79.0,22.0,1136.0 
82.0,20.0,1142.0 
76.0,21.0,1148.0 
80.0,24.0,1139.0 
77.0,25.0,1140.0 
78.0,26.0,1135.0 
79.0,23.0,1136.0 
79.0,27.0,1133.0 
81.0,23.0,1135.0 
79.0,26.0,1129.0 
82.0,23.0,1148.0 
74.0,24.0,1131.0 
80.0,23.0,1136.0 
78.0,23.0,1137.0 
78.0,25.0,1140.0 
81.0,24.0,1134.0 
78.0,22.0,1131.0 
94.0,25.0,1133.0 
79.0,22.0,1134.0 
78.0,21.0,1141.0 
76.0,23.0,1138.0 
77.0,25.0,1135.0 
81.0,23.0,1135.0 
77.0,27.0,1133.0 
79.0,23.0,1140.0 
81.0,25.0,1134.0 
82.0,26.0,1135.0 
80.0,26.0,1134.0 
78.0,22.0,1135.0 
78.0,25.0,1143.0 
75.0,22.0,1140.0 
79.0,22.0,1138.0 
79.0,22.0,1140.0 
77.0,24.0,1137.0 
81.0,23.0,1136.0 
80.0,24.0,1131.0 
78.0,21.0,1137.0 
84.0,25.0,1139.0 
74.0,22.0,1135.0 
74.0,25.0,1133.0 
79.0,26.0,1130.0 
78.0,23.0,1130.0 
79.0,29.0,1129.0 
81.0,22.0,1133.0 
83.0,23.0,1137.0 
79.0,28.0,1138.0 
77.0,26.0,1137.0 
80.0,25.0,1131.0 
81.0,22.0,1136.0 
79.0,25.0,1130.0 
78.0,24.0,1135.0 
80.0,26.0,1138.0 
95.0,26.0,1137.0 
79.0,24.0,1138.0 
80.0,24.0,1135.0 
79.0,21.0,1138.0 
79.0,25.0,1141.0 
75.0,24.0,1140.0 
79.0,24.0,1137.0 
76.0,23.0,1131.0 
83.0,24.0,1136.0 
80.0,23.0,1141.0 
83.0,22.0,1147.0 
78.0,28.0,1147.0 
80.0,25.0,1136.0 
82.0,25.0,1135.0 
81.0,26.0,1134.0 
80.0,24.0,1138.0 
79.0,25.0,1138.0 
80.0,25.0,1138.0 
81.0,26.0,1139.0 
81.0,23.0,1135.0 
83.0,23.0,1136.0 
76.0,24.0,1144.0 
82.0,23.0,1134.0 
82.0,24.0,1133.0 
79.0,26.0,1137.0 
80.0,23.0,1151.0 
79.0,21.0,1144.0 
80.0,24.0,1143.0 
81.0,25.0,1136.0 
80.0,20.0,1133.0 
80.0,25.0,1135.0 
77.0,21.0,1131.0 
84.0,26.0,1138.0 
78.0,24.0,1134.0 
79.0,25.0,1141.0 
78.0,29.0,1133.0 
81.0,26.0,1133.0 
81.0,28.0,1138.0 
79.0,23.0,1137.0 
81.0,24.0,1136.0 
79.0,27.0,1138.0 
77.0,24.0,1135.0 
79.0,26.0,1134.0 
78.0,22.0,1135.0 
82.0,26.0,1139.0 
79.0,28.0,1138.0 
75.0,27.0,1133.0 
81.0,23.0,1138.0 
78.0,27.0,1136.0 
75.0,21.0,1141.0 
79.0,26.0,1138.0 
79.0,23.0,1133.0 
78.0,24.0,1129.0 
81.0,22.0,1135.0 
81.0,22.0,1144.0 
83.0,27.0,1143.0 
79.0,26.0,1136.0 
80.0,22.0,1135.0 
80.0,23.0,1132.0 
80.0,21.0,1136.0 
82.0,19.0,1140.0 
81.0,24.0,1131.0 
77.0,23.0,1140.0 
78.0,20.0,1133.0 
81.0,27.0,1133.0 
81.0,26.0,1134.0 
79.0,25.0,1132.0 
83.0,23.0,1142.0 
82.0,22.0,1140.0 
73.0,24.0,1144.0 
77.0,22.0,1134.0 
80.0,26.0,1134.0 
81.0,26.0,1136.0 
80.0,25.0,1137.0 
79.0,28.0,1137.0 
79.0,25.0,1142.0 
78.0,25.0,1135.0 
79.0,21.0,1135.0 
80.0,22.0,1132.0 
83.0,22.0,1130.0 
78.0,25.0,1145.0 
79.0,24.0,1139.0 
77.0,23.0,1136.0 
73.0,21.0,1136.0 
78.0,25.0,1144.0 
79.0,25.0,1135.0 
80.0,26.0,1141.0 
77.0,24.0,1137.0 
79.0,24.0,1135.0 
82.0,26.0,1129.0 
75.0,25.0,1130.0 
81.0,23.0,1139.0 
80.0,27.0,1138.0 
79.0,23.0,1140.0 
81.0,23.0,1141.0 
81.0,27.0,1140.0 
82.0,21.0,1134.0 
83.0,22.0,1138.0 
80.0,25.0,1138.0 
82.0,27.0,1139.0 
81.0,20.0,1141.0 
81.0,25.0,1137.0 
77.0,20.0,1136.0 
82.0,24.0,1141.0 
78.0,22.0,1136.0 
79.0,26.0,1137.0 
76.0,29.0,1136.0 
80.0,24.0,1135.0 
76.0,25.0,1134.0 
79.0,20.0,1136.0 
79.0,25.0,1138.0 
75.0,26.0,1142.0 
79.0,25.0,1137.0 
77.0,24.0,1137.0 
81.0,24.0,1136.0 
81.0,26.0,1140.0 
79.0,25.0,1147.0 
78.0,24.0,1135.0 
80.0,25.0,1135.0 
78.0,25.0,1139.0 
80.0,23.0,1138.0 
80.0,20.0,1136.0 
76.0,20.0,1137.0 
79.0,29.0,1138.0 
79.0,24.0,1139.0 
76.0,26.0,1135.0 
79.0,26.0,1138.0 
79.0,25.0,1139.0 
78.0,23.0,1136.0 
76.0,22.0,1133.0 
79.0,25.0,1131.0 
78.0,24.0,1135.0 
79.0,22.0,1138.0 
78.0,21.0,1137.0 
80.0,28.0,1136.0 
80.0,26.0,1138.0 
81.0,28.0,1136.0 
81.0,24.0,1133.0 
76.0,21.0,1137.0 
78.0,23.0,1134.0 
81.0,23.0,1139.0 
75.0,23.0,1137.0 
79.0,21.0,1138.0 
82.0,24.0,1140.0 
94.0,25.0,1139.0 
81.0,22.0,1131.0 
78.0,27.0,1133.0 
80.0,25.0,1138.0 
81.0,23.0,1145.0 
79.0,23.0,1136.0 
78.0,26.0,1134.0 
78.0,22.0,1104.0 
74.0,34.0,1089.0 
77.0,30.0,1092.0 
80.0,22.0,1122.0 
81.0,23.0,1153.0 
81.0,25.0,1160.0 
80.0,22.0,1158.0 
80.0,21.0,1141.0 
79.0,22.0,1116.0 
77.0,24.0,1123.0 
80.0,23.0,1131.0 
84.0,25.0,1127.0 
83.0,23.0,1136.0 
82.0,22.0,1135.0 
81.0,21.0,1142.0 
80.0,23.0,1150.0 
82.0,27.0,1138.0 
74.0,25.0,1136.0 
78.0,24.0,1130.0 
81.0,25.0,1127.0 
78.0,21.0,1138.0 
79.0,28.0,1140.0 
79.0,24.0,1139.0 
78.0,21.0,1143.0 
78.0,26.0,1139.0 
83.0,19.0,1133.0 
80.0,27.0,1108.0 
78.0,31.0,1114.0 
79.0,23.0,1119.0 
84.0,21.0,1138.0 
78.0,21.0,1161.0 
78.0,26.0,1158.0 
78.0,20.0,1136.0 
83.0,24.0,1130.0 
83.0,21.0,1128.0 
78.0,25.0,1119.0 
76.0,21.0,1137.0 
77.0,26.0,1147.0 
81.0,22.0,1152.0 
79.0,23.0,1140.0 
78.0,22.0,1135.0 
76.0,23.0,1135.0 
78.0,25.0,1124.0 
75.0,24.0,1137.0 
78.0,21.0,1140.0 
77.0,27.0,1136.0 
78.0,23.0,1138.0 
77.0,22.0,1125.0 
74.0,26.0,1100.0 
74.0,27.0,1111.0 
78.0,19.0,1118.0 
78.0,19.0,1148.0 
77.0,22.0,1153.0 
78.0,25.0,1153.0 
81.0,23.0,1158.0 
76.0,24.0,1127.0 
78.0,23.0,1124.0 
79.0,28.0,1124.0 
84.0,23.0,1132.0 
82.0,25.0,1154.0 
80.0,24.0,1152.0 
82.0,24.0,1148.0 
80.0,26.0,1134.0 
79.0,25.0,1120.0 
77.0,26.0,1132.0 
78.0,27.0,1132.0 
82.0,27.0,1136.0 
81.0,22.0,1141.0 
81.0,22.0,1141.0 
80.0,23.0,1141.0 
81.0,25.0,1160.0 
83.0,30.0,1171.0 
76.0,28.0,1175.0 
79.0,22.0,1173.0 
79.0,22.0,1141.0 
77.0,28.0,1119.0 
79.0,21.0,1115.0 
81.0,21.0,1123.0 
80.0,26.0,1140.0 
80.0,21.0,1141.0 
78.0,22.0,1148.0 
79.0,24.0,1141.0 
81.0,23.0,1137.0 
77.0,25.0,1110.0 
76.0,27.0,1115.0 
83.0,24.0,1128.0 
65.0,24.0,1150.0 
77.0,25.0,1150.0 
80.0,24.0,1144.0 
82.0,25.0,1142.0 
78.0,22.0,1125.0 
82.0,25.0,1135.0 
78.0,23.0,1131.0 
76.0,29.0,1155.0 
77.0,23.0,1149.0 
78.0,23.0,1145.0 
80.0,27.0,1124.0 
84.0,25.0,1106.0 
79.0,26.0,1123.0 
83.0,24.0,1135.0 
83.0,23.0,1148.0 
78.0,23.0,1147.0 
77.0,25.0,1142.0 
78.0,23.0,1133.0 
78.0,24.0,1137.0 
85.0,22.0,1139.0 
77.0,27.0,1159.0 
76.0,21.0,1156.0 
79.0,24.0,1140.0 
78.0,24.0,1140.0 
76.0,26.0,1126.0 
78.0,27.0,1134.0 
83.0,23.0,1137.0 
80.0,21.0,1148.0 
77.0,25.0,1142.0 
80.0,25.0,1140.0 
78.0,33.0,1108.0 
86.0,17.0,1129.0 
80.0,21.0,1161.0 
78.0,28.0,1164.0 
82.0,25.0,1177.0 
95.0,21.0,1141.0 
79.0,27.0,1133.0 
79.0,23.0,1117.0 
78.0,24.0,1121.0 
75.0,27.0,1139.0 
79.0,23.0,1140.0 
81.0,22.0,1150.0 
80.0,23.0,1141.0 
78.0,21.0,1149.0 
79.0,28.0,1149.0 
79.0,21.0,1141.0 
78.0,21.0,1126.0 
80.0,26.0,1132.0 
81.0,20.0,1126.0 
79.0,26.0,1129.0 
79.0,22.0,1141.0 
79.0,24.0,1147.0 
79.0,31.0,1117.0 
79.0,26.0,1104.0 
76.0,23.0,1115.0 
77.0,27.0,1138.0 
77.0,20.0,1152.0 
78.0,19.0,1151.0 
79.0,26.0,1144.0 
77.0,26.0,1132.0 
74.0,27.0,1126.0 
77.0,21.0,1129.0 
81.0,26.0,1134.0 
80.0,25.0,1142.0 
79.0,21.0,1141.0 
82.0,23.0,1142.0 
79.0,27.0,1118.0 
82.0,22.0,1134.0 
83.0,22.0,1151.0 
83.0,24.0,1156.0 
79.0,24.0,1142.0 
77.0,22.0,1138.0 
78.0,23.0,1129.0 
81.0,23.0,1128.0 
78.0,25.0,1150.0 
75.0,23.0,1149.0 
79.0,20.0,1158.0 
77.0,19.0,1148.0 
76.0,27.0,1134.0 
82.0,25.0,1124.0 
82.0,25.0,1129.0 
75.0,28.0,1141.0 
77.0,22.0,1142.0 
80.0,24.0,1146.0 
77.0,27.0,1146.0 
78.0,23.0,1138.0 
80.0,25.0,1133.0 
77.0,25.0,1133.0 
80.0,23.0,1129.0 
84.0,25.0,1129.0 
80.0,20.0,1133.0 
80.0,25.0,1139.0 
78.0,23.0,1142.0 
79.0,23.0,1146.0 
76.0,24.0,1142.0 
77.0,24.0,1134.0 
82.0,25.0,1130.0 
78.0,26.0,1132.0 
78.0,23.0,1137.0 
79.0,22.0,1138.0 
78.0,23.0,1136.0 
79.0,22.0,1135.0 
79.0,22.0,1138.0 
86.0,20.0,1140.0 
83.0,23.0,1165.0 
73.0,20.0,1162.0 
77.0,22.0,1145.0 
81.0,18.0,1141.0 
76.0,23.0,1141.0 
78.0,21.0,1138.0 
77.0,23.0,1137.0 
76.0,26.0,1133.0 
81.0,26.0,1136.0 
84.0,21.0,1133.0 
94.0,20.0,1134.0 
75.0,21.0,1134.0 
80.0,20.0,1136.0 
80.0,25.0,1149.0 
80.0,23.0,1137.0 
78.0,30.0,1144.0 
84.0,23.0,1134.0 
78.0,20.0,1151.0 
77.0,23.0,1141.0 
79.0,26.0,1141.0 
82.0,24.0,1134.0 
78.0,26.0,1144.0 
81.0,27.0,1131.0 
81.0,22.0,1136.0 
79.0,26.0,1144.0 
79.0,28.0,1140.0 
82.0,22.0,1133.0 
81.0,20.0,1135.0 
79.0,25.0,1140.0 
77.0,23.0,1140.0 
79.0,26.0,1131.0 
81.0,26.0,1138.0 
85.0,24.0,1137.0 
82.0,23.0,1135.0 
78.0,20.0,1140.0 
79.0,23.0,1137.0 
81.0,27.0,1133.0 
79.0,24.0,1137.0 
77.0,23.0,1140.0 
80.0,24.0,1134.0 
75.0,25.0,1135.0 
92.0,22.0,1145.0 
78.0,24.0,1136.0 
80.0,27.0,1141.0 
78.0,24.0,1132.0 
66.0,24.0,1131.0 
81.0,27.0,1133.0 
75.0,20.0,1139.0 
81.0,21.0,1142.0 
80.0,23.0,1135.0 
83.0,25.0,1144.0 
80.0,23.0,1138.0 
77.0,24.0,1150.0 
77.0,24.0,1137.0 
79.0,25.0,1131.0 
77.0,26.0,1143.0 
78.0,24.0,1138.0 
77.0,24.0,1138.0 
79.0,22.0,1134.0 
79.0,24.0,1138.0 
78.0,27.0,1139.0 
82.0,29.0,1140.0 
80.0,21.0,1133.0 
80.0,24.0,1137.0 
82.0,26.0,1136.0 
79.0,28.0,1136.0 
81.0,28.0,1134.0 
76.0,26.0,1129.0 
76.0,25.0,1137.0 
77.0,26.0,1141.0 
79.0,24.0,1135.0 
78.0,26.0,1138.0 
82.0,23.0,1131.0 
79.0,24.0,1139.0 
77.0,31.0,1137.0 
78.0,26.0,1130.0 
66.0,25.0,1135.0 
79.0,26.0,1136.0 
81.0,26.0,1143.0 
79.0,29.0,1138.0 
94.0,25.0,1135.0 
80.0,26.0,1133.0 
81.0,22.0,1132.0 
75.0,25.0,1150.0 
79.0,25.0,1139.0 
82.0,22.0,1136.0 
79.0,24.0,1141.0 
81.0,29.0,1121.0 
79.0,25.0,1134.0 
81.0,30.0,1138.0 
80.0,24.0,1142.0 
78.0,21.0,1141.0 
80.0,23.0,1135.0 
79.0,24.0,1141.0 
78.0,25.0,1139.0 
74.0,22.0,1141.0 
80.0,22.0,1135.0 
77.0,26.0,1135.0 
80.0,22.0,1138.0 
81.0,21.0,1139.0 
81.0,23.0,1141.0 
75.0,23.0,1139.0 
81.0,24.0,1138.0 
75.0,24.0,1136.0 
80.0,21.0,1129.0 
78.0,24.0,1135.0 
79.0,23.0,1137.0 
76.0,20.0,1143.0 
79.0,26.0,1139.0 
77.0,25.0,1133.0 
79.0,26.0,1138.0 
79.0,21.0,1132.0 
80.0,22.0,1139.0 
80.0,26.0,1135.0 
83.0,26.0,1137.0 
82.0,26.0,1132.0 
82.0,22.0,1133.0 
79.0,24.0,1137.0 
76.0,26.0,1137.0 
75.0,21.0,1139.0 
79.0,24.0,1136.0 
78.0,28.0,1137.0 
81.0,24.0,1139.0 
79.0,23.0,1137.0 
81.0,19.0,1135.0 
78.0,23.0,1138.0 
81.0,27.0,1132.0 
80.0,25.0,1138.0 
81.0,22.0,1141.0 
80.0,25.0,1139.0 
74.0,25.0,1140.0 
78.0,26.0,1136.0 
78.0,28.0,1135.0 
77.0,23.0,1135.0 
78.0,22.0,1140.0 
79.0,23.0,1137.0 
79.0,23.0,1134.0 
81.0,19.0,1136.0 
76.0,25.0,1132.0 
82.0,23.0,1138.0 
79.0,19.0,1129.0 
84.0,20.0,1129.0 
66.0,23.0,1141.0 
80.0,24.0,1138.0 
82.0,24.0,1140.0 
80.0,24.0,1133.0 
95.0,23.0,1137.0 
75.0,25.0,1134.0 
77.0,24.0,1136.0 
82.0,23.0,1133.0 
81.0,26.0,1138.0 
81.0,25.0,1136.0 
78.0,23.0,1139.0 
80.0,23.0,1136.0 
77.0,22.0,1133.0 
77.0,26.0,1137.0 
80.0,26.0,1132.0 
77.0,27.0,1136.0 
78.0,23.0,1138.0 
78.0,28.0,1139.0 
76.0,25.0,1145.0 
80.0,24.0,1138.0 
78.0,20.0,1131.0 
81.0,26.0,1134.0 
80.0,22.0,1133.0 
77.0,24.0,1137.0 
76.0,25.0,1145.0 
78.0,20.0,1135.0 
81.0,22.0,1140.0 
77.0,26.0,1137.0 
83.0,20.0,1132.0 
79.0,25.0,1136.0 
79.0,26.0,1141.0 
76.0,18.0,1136.0 
81.0,24.0,1137.0 
76.0,24.0,1140.0 
82.0,22.0,1134.0 
95.0,19.0,1136.0 
78.0,23.0,1137.0 
81.0,29.0,1139.0 
78.0,22.0,1137.0 
78.0,27.0,1134.0 
81.0,23.0,1131.0 
79.0,22.0,1139.0 
79.0,23.0,1124.0 
78.0,22.0,1129.0 
78.0,28.0,1136.0 
82.0,26.0,1133.0 
84.0,21.0,1133.0 
81.0,25.0,1138.0 
77.0,28.0,1132.0 
77.0,24.0,1136.0 
82.0,22.0,1129.0 
79.0,25.0,1136.0 
78.0,24.0,1133.0 
79.0,21.0,1133.0 
77.0,21.0,1142.0 
78.0,28.0,1141.0 
77.0,23.0,1141.0 
78.0,24.0,1137.0 
76.0,25.0,1134.0 
78.0,25.0,1135.0 
78.0,21.0,1141.0 
82.0,22.0,1130.0 
44.0,69.0,1129.0 
39.0,64.0,1124.0 
42.0,58.0,1127.0 
40.0,67.0,1131.0 
41.0,74.0,1144.0 
51.0,92.0,1145.0 
50.0,89.0,1140.0 
51.0,85.0,1140.0 
56.0,85.0,1136.0 
58.0,79.0,1132.0 
48.0,71.0,1125.0 
41.0,72.0,1124.0 
37.0,77.0,1125.0 
42.0,85.0,1121.0 
37.0,95.0,1123.0 
56.0,103.0,1127.0 
68.0,116.0,1144.0 
83.0,114.0,1150.0 
85.0,124.0,1157.0 
77.0,122.0,1153.0 
55.0,78.0,1138.0 
26.0,64.0,1134.0 
18.0,60.0,1120.0 
12.0,44.0,1107.0 
13.0,45.0,1099.0 
30.0,59.0,1115.0 
52.0,81.0,1134.0 
73.0,99.0,1147.0 
83.0,102.0,1145.0 
73.0,97.0,1140.0 
49.0,72.0,1144.0 
61.0,99.0,1088.0 
24.0,94.0,1138.0 
39.0,86.0,1127.0 
31.0,89.0,1133.0 
35.0,87.0,1133.0 
27.0,84.0,1117.0 
29.0,90.0,1130.0 
41.0,93.0,1137.0 
41.0,102.0,1150.0 
55.0,97.0,1137.0 
58.0,90.0,1135.0 
53.0,83.0,1137.0 
52.0,81.0,1133.0 
40.0,68.0,1127.0 
44.0,69.0,1124.0 
43.0,73.0,1134.0 
41.0,94.0,1131.0 
44.0,89.0,1135.0 
41.0,88.0,1144.0 
42.0,90.0,1143.0 
39.0,87.0,1146.0 
49.0,89.0,1146.0 
49.0,83.0,1140.0 
55.0,82.0,1133.0 
54.0,68.0,1126.0 
48.0,65.0,1123.0 
46.0,68.0,1122.0 
38.0,70.0,1120.0 
47.0,82.0,1126.0 
47.0,91.0,1135.0 
52.0,98.0,1135.0 
58.0,107.0,1137.0 
53.0,101.0,1132.0 
50.0,90.0,1129.0 
42.0,84.0,1127.0 
38.0,79.0,1132.0 
50.0,86.0,1130.0 
48.0,90.0,1140.0 
64.0,92.0,1139.0 
80.0,86.0,1126.0 
60.0,112.0,1145.0 
63.0,89.0,1158.0 
54.0,83.0,1142.0 
47.0,76.0,1119.0 
32.0,55.0,1104.0 
40.0,56.0,1112.0 
40.0,53.0,1118.0 
43.0,75.0,1125.0 
55.0,78.0,1129.0 
60.0,81.0,1141.0 
61.0,82.0,1145.0 
59.0,108.0,1163.0 
46.0,99.0,1158.0 
34.0,105.0,1152.0 
30.0,107.0,1143.0 
25.0,91.0,1135.0 
29.0,84.0,1132.0 
39.0,77.0,1131.0 
46.0,77.0,1135.0 
49.0,75.0,1127.0 
61.0,83.0,1132.0 
67.0,88.0,1135.0 
64.0,94.0,1140.0 
48.0,88.0,1135.0 
44.0,92.0,1129.0 
41.0,92.0,1141.0 
37.0,91.0,1128.0 
31.0,74.0,1118.0 
35.0,72.0,1119.0 
49.0,69.0,1121.0 
55.0,73.0,1127.0 
72.0,81.0,1121.0 
75.0,83.0,1131.0 
79.0,97.0,1146.0 
74.0,100.0,1154.0 
60.0,93.0,1151.0 
54.0,99.0,1139.0 
53.0,102.0,1149.0 
46.0,84.0,1118.0 
39.0,62.0,1114.0 
39.0,63.0,1111.0 
49.0,71.0,1113.0 
61.0,81.0,1132.0 
80.0,90.0,1141.0 
81.0,92.0,1135.0 
75.0,92.0,1139.0 
70.0,89.0,1145.0 
51.0,87.0,1129.0 
41.0,76.0,1128.0 
35.0,71.0,1123.0 
33.0,68.0,1121.0 
37.0,74.0,1126.0 
47.0,79.0,1132.0 
58.0,83.0,1135.0 
61.0,92.0,1145.0 
60.0,95.0,1139.0 
64.0,93.0,1138.0 
61.0,92.0,1144.0 
40.0,86.0,1125.0 
34.0,75.0,1114.0 
36.0,77.0,1117.0 
34.0,81.0,1134.0 
48.0,80.0,1136.0 
51.0,81.0,1142.0 
48.0,91.0,1144.0 
51.0,93.0,1145.0 
43.0,98.0,1146.0 
41.0,89.0,1147.0 
44.0,86.0,1136.0 
45.0,73.0,1134.0 
41.0,59.0,1127.0 
42.0,48.0,1126.0 
46.0,54.0,1119.0 
47.0,92.0,1122.0 
30.0,53.0,1153.0 
39.0,69.0,1134.0 
43.0,95.0,1135.0 
43.0,104.0,1156.0 
52.0,106.0,1165.0 
45.0,102.0,1157.0 
49.0,97.0,1138.0 
52.0,77.0,1124.0 
35.0,66.0,1113.0 
39.0,61.0,1110.0 
35.0,62.0,1114.0 
42.0,88.0,1126.0 
60.0,102.0,1147.0 
62.0,107.0,1156.0 
57.0,103.0,1151.0 
37.0,92.0,1141.0 
33.0,80.0,1127.0 
31.0,65.0,1131.0 
37.0,67.0,1131.0 
44.0,64.0,1124.0 
59.0,66.0,1125.0 
69.0,75.0,1132.0 
73.0,82.0,1133.0 
75.0,73.0,1135.0 
68.0,75.0,1143.0 
62.0,87.0,1139.0 
52.0,86.0,1144.0 
31.0,75.0,1143.0 
32.0,83.0,1136.0 
32.0,82.0,1127.0 
28.0,78.0,1126.0 
56.0,74.0,1127.0 
60.0,84.0,1127.0 
66.0,81.0,1130.0 
68.0,94.0,1128.0 
58.0,77.0,1129.0 
54.0,82.0,1132.0 
49.0,83.0,1131.0 
40.0,90.0,1146.0 
37.0,91.0,1140.0 
36.0,94.0,1140.0 
42.0,87.0,1130.0 
40.0,70.0,1132.0 
54.0,74.0,1132.0 
54.0,70.0,1138.0 
57.0,71.0,1132.0 
57.0,75.0,1137.0 
45.0,73.0,1136.0 
34.0,69.0,1140.0 
42.0,79.0,1142.0 
38.0,106.0,1138.0 
43.0,99.0,1141.0 
47.0,100.0,1137.0 
53.0,91.0,1141.0 
60.0,84.0,1144.0 
567.0,-2.0,1025.0 
562.0,-5.0,1028.0 
554.0,-5.0,1018.0 
548.0,-8.0,995.0 
549.0,-19.0,993.0 
549.0,-19.0,1010.0 
562.0,-8.0,1007.0 
560.0,-3.0,1021.0 
566.0,0.0,1012.0 
570.0,8.0,1013.0 
567.0,13.0,1014.0 
557.0,0.0,999.0 
538.0,-21.0,978.0 
544.0,-16.0,993.0 
544.0,-12.0,997.0 
551.0,-14.0,1007.0 
551.0,-4.0,1005.0 
554.0,-1.0,1010.0 
558.0,-1.0,1017.0 
554.0,15.0,1013.0 
560.0,-4.0,1014.0 
561.0,-6.0,1011.0 
553.0,-19.0,1007.0 
551.0,-16.0,1004.0 
558.0,-9.0,1006.0 
554.0,-4.0,1002.0 
548.0,-10.0,994.0 
560.0,0.0,1011.0 
560.0,1.0,1015.0 
552.0,3.0,1024.0 
562.0,13.0,1016.0 
556.0,13.0,1014.0 
558.0,5.0,1005.0 
552.0,-12.0,995.0 
550.0,-18.0,976.0 
541.0,-37.0,969.0 
541.0,-27.0,980.0 
551.0,-11.0,991.0 
561.0,-2.0,1021.0 
551.0,12.0,1010.0 
553.0,5.0,1004.0 
550.0,8.0,1003.0 
552.0,8.0,1002.0 
556.0,-6.0,1008.0 
563.0,-13.0,1016.0 
566.0,-19.0,1011.0 
566.0,-19.0,1004.0 
573.0,-18.0,1014.0 
577.0,-6.0,1013.0 
573.0,3.0,1014.0 
568.0,7.0,1026.0 
553.0,-9.0,990.0 
528.0,-28.0,994.0 
530.0,-8.0,1004.0 
542.0,-5.0,1008.0 
545.0,-4.0,1005.0 
547.0,-2.0,991.0 
542.0,-10.0,989.0 
544.0,-10.0,987.0 
555.0,-4.0,1002.0 
558.0,2.0,1000.0 
557.0,16.0,1010.0 
559.0,16.0,1017.0 
554.0,10.0,1016.0 
552.0,-3.0,989.0 
532.0,12.0,1029.0 
553.0,-10.0,1011.0 
553.0,-7.0,1014.0 
558.0,-10.0,1008.0 
559.0,-4.0,1000.0 
566.0,-15.0,1002.0 
568.0,-10.0,1004.0 
564.0,-5.0,1002.0 
560.0,-5.0,1004.0 
549.0,0.0,1008.0 
549.0,4.0,1020.0 
553.0,5.0,1014.0 
544.0,-3.0,1000.0 
558.0,-3.0,995.0 
561.0,-9.0,991.0 
556.0,-16.0,995.0 
559.0,-10.0,996.0 
557.0,-2.0,1007.0 
558.0,13.0,1008.0 
558.0,10.0,999.0 
552.0,-9.0,991.0 
544.0,-17.0,999.0 
559.0,-13.0,1001.0 
566.0,-4.0,1005.0 
560.0,1.0,1013.0 
576.0,13.0,1004.0 
564.0,-20.0,1003.0 
540.0,-13.0,1008.0 
566.0,5.0,1014.0 
552.0,-12.0,1004.0 
555.0,-7.0,1000.0 
556.0,-3.0,1002.0 
547.0,-11.0,1005.0 
567.0,-3.0,1012.0 
571.0,4.0,1015.0 
567.0,0.0,992.0 
567.0,2.0,1012.0 
568.0,10.0,1007.0 
554.0,5.0,999.0 
569.0,11.0,996.0 
560.0,-2.0,1009.0 
570.0,10.0,1021.0 
551.0,-11.0,1002.0 
547.0,-6.0,1006.0 
550.0,-8.0,980.0 
537.0,-4.0,1009.0 
543.0,2.0,1003.0 
540.0,-16.0,992.0 
537.0,-12.0,975.0 
541.0,-26.0,957.0 
536.0,-24.0,964.0 
556.0,9.0,990.0 
568.0,17.0,1010.0 
570.0,27.0,1022.0 
569.0,24.0,1030.0 
564.0,18.0,1022.0 
555.0,8.0,1022.0 
556.0,8.0,1019.0 
557.0,9.0,1012.0 
560.0,-10.0,996.0 
546.0,-6.0,1002.0 
564.0,-15.0,981.0 
558.0,-13.0,984.0 
574.0,15.0,1005.0 
585.0,28.0,1013.0 
586.0,27.0,1018.0 
572.0,23.0,1017.0 
549.0,-2.0,1011.0 
533.0,-17.0,1004.0 
531.0,-14.0,990.0 
534.0,-3.0,983.0 
539.0,-42.0,990.0 
561.0,29.0,1012.0 
564.0,7.0,992.0 
565.0,3.0,1004.0 
571.0,18.0,1009.0 
569.0,23.0,1021.0 
556.0,16.0,1010.0 
541.0,6.0,992.0 
538.0,-5.0,995.0 
539.0,-15.0,998.0 
547.0,-19.0,1001.0 
561.0,-6.0,1005.0 
570.0,8.0,1010.0 
580.0,19.0,1014.0 
576.0,20.0,1024.0 
570.0,23.0,1013.0 
545.0,8.0,1011.0 
532.0,0.0,1002.0 
526.0,5.0,1005.0 
525.0,11.0,1007.0 
557.0,21.0,1009.0 
565.0,11.0,1000.0 
563.0,0.0,1000.0 
567.0,3.0,1000.0 
575.0,10.0,1008.0 
568.0,12.0,1012.0 
560.0,7.0,1011.0 
538.0,6.0,1012.0 
542.0,5.0,1010.0 
536.0,6.0,1009.0 
551.0,3.0,1009.0 
557.0,1.0,1007.0 
565.0,6.0,1010.0 
569.0,5.0,1003.0 
577.0,15.0,992.0 
563.0,3.0,1005.0 
554.0,0.0,1004.0 
557.0,-7.0,998.0 
547.0,0.0,999.0 
551.0,10.0,1006.0 
549.0,9.0,997.0 
546.0,4.0,1002.0 
546.0,17.0,998.0 
546.0,8.0,999.0 
552.0,12.0,995.0 
555.0,12.0,1007.0 
560.0,11.0,1006.0 
564.0,9.0,1008.0 
570.0,11.0,1011.0 
564.0,3.0,1010.0 
561.0,7.0,999.0 
539.0,-3.0,1002.0 
542.0,-2.0,993.0 
542.0,5.0,994.0 
551.0,15.0,1011.0 
569.0,13.0,1005.0 
569.0,5.0,1007.0 
569.0,6.0,1004.0 
553.0,5.0,1002.0 
561.0,10.0,1000.0 
562.0,10.0,999.0 
549.0,5.0,996.0 
545.0,9.0,1006.0 
550.0,14.0,1011.0 
63.0,686.0,858.0 
61.0,700.0,865.0 
58.0,731.0,873.0 
67.0,727.0,868.0 
74.0,726.0,858.0 
79.0,718.0,852.0 
79.0,693.0,843.0 
76.0,683.0,841.0 
76.0,694.0,849.0 
80.0,706.0,854.0 
82.0,720.0,870.0 
77.0,709.0,873.0 
67.0,696.0,865.0 
66.0,691.0,861.0 
64.0,695.0,856.0 
73.0,703.0,867.0 
80.0,702.0,876.0 
86.0,704.0,876.0 
107.0,707.0,868.0 
94.0,699.0,870.0 
91.0,695.0,862.0 
90.0,691.0,860.0 
86.0,690.0,864.0 
86.0,691.0,867.0 
79.0,693.0,864.0 
78.0,695.0,851.0 
77.0,710.0,867.0 
74.0,710.0,867.0 
78.0,708.0,868.0 
84.0,701.0,864.0 
95.0,695.0,862.0 
95.0,689.0,859.0 
93.0,678.0,857.0 
88.0,697.0,860.0 
87.0,694.0,866.0 
96.0,696.0,840.0 
72.0,696.0,874.0 
87.0,710.0,894.0 
75.0,716.0,879.0 
72.0,706.0,862.0 
75.0,703.0,864.0 
79.0,686.0,858.0 
82.0,688.0,860.0 
97.0,698.0,863.0 
101.0,705.0,864.0 
99.0,693.0,870.0 
75.0,689.0,867.0 
73.0,687.0,859.0 
67.0,689.0,859.0 
70.0,691.0,867.0 
79.0,700.0,862.0 
90.0,700.0,871.0 
93.0,698.0,873.0 
95.0,703.0,880.0 
98.0,704.0,880.0 
89.0,702.0,878.0 
82.0,690.0,871.0 
66.0,681.0,862.0 
68.0,688.0,866.0 
70.0,702.0,870.0 
82.0,710.0,887.0 
92.0,701.0,881.0 
89.0,694.0,871.0 
98.0,687.0,862.0 
94.0,680.0,864.0 
87.0,690.0,869.0 
87.0,710.0,874.0 
88.0,717.0,879.0 
83.0,684.0,877.0 
69.0,677.0,861.0 
69.0,678.0,850.0 
81.0,677.0,856.0 
90.0,703.0,870.0 
116.0,705.0,893.0 
120.0,701.0,901.0 
108.0,697.0,900.0 
104.0,692.0,890.0 
94.0,700.0,891.0 
78.0,699.0,885.0 
75.0,686.0,880.0 
79.0,688.0,866.0 
63.0,689.0,856.0 
71.0,689.0,847.0 
74.0,694.0,851.0 
82.0,712.0,849.0 
104.0,716.0,860.0 
107.0,721.0,857.0 
107.0,716.0,851.0 
83.0,684.0,856.0 
76.0,677.0,843.0 
76.0,674.0,840.0 
74.0,681.0,841.0 
80.0,690.0,860.0 
82.0,703.0,863.0 
89.0,704.0,864.0 
94.0,703.0,874.0 
102.0,712.0,880.0 
104.0,709.0,882.0 
97.0,698.0,888.0 
87.0,687.0,876.0 
74.0,679.0,867.0 
76.0,677.0,863.0 
80.0,682.0,867.0 
82.0,691.0,876.0 
105.0,701.0,870.0 
97.0,695.0,870.0 
93.0,687.0,868.0 
92.0,700.0,875.0 
82.0,698.0,873.0 
84.0,700.0,872.0 
83.0,703.0,871.0 
94.0,673.0,859.0 
71.0,664.0,855.0 
91.0,695.0,868.0 
103.0,705.0,877.0 
87.0,678.0,865.0 
86.0,696.0,871.0 
95.0,701.0,879.0 
91.0,699.0,874.0 
70.0,692.0,869.0 
69.0,693.0,865.0 
72.0,698.0,857.0 
69.0,694.0,876.0 
92.0,694.0,866.0 
98.0,691.0,863.0 
103.0,691.0,858.0 
105.0,684.0,859.0 
94.0,682.0,863.0 
85.0,686.0,868.0 
78.0,693.0,866.0 
78.0,703.0,879.0 
77.0,716.0,877.0 
71.0,699.0,876.0 
73.0,691.0,857.0 
85.0,684.0,859.0 
101.0,679.0,869.0 
97.0,679.0,868.0 
97.0,685.0,874.0 
95.0,705.0,883.0 
93.0,702.0,893.0 
86.0,704.0,891.0 
80.0,697.0,889.0 
81.0,678.0,871.0 
87.0,680.0,865.0 
90.0,677.0,869.0 
87.0,682.0,865.0 
86.0,691.0,874.0 
88.0,696.0,885.0 
97.0,697.0,887.0 
96.0,692.0,875.0 
97.0,685.0,860.0 
96.0,688.0,860.0 
103.0,697.0,866.0 
99.0,701.0,887.0 
83.0,684.0,876.0 
77.0,679.0,868.0 
79.0,682.0,873.0 
86.0,680.0,874.0 
97.0,701.0,880.0 
99.0,709.0,884.0 
107.0,707.0,881.0 
97.0,697.0,873.0 
83.0,680.0,866.0 
80.0,676.0,864.0 
79.0,674.0,872.0 
86.0,698.0,873.0 
91.0,707.0,868.0 
91.0,696.0,863.0 
85.0,691.0,871.0 
85.0,694.0,860.0 
77.0,689.0,858.0 
80.0,688.0,862.0 
90.0,696.0,863.0 
94.0,690.0,865.0 
99.0,687.0,867.0 
96.0,687.0,867.0 
96.0,687.0,867.0 
93.0,681.0,872.0 
87.0,682.0,869.0 
85.0,689.0,870.0 
93.0,693.0,876.0 
86.0,705.0,895.0 
92.0,710.0,901.0 
88.0,705.0,906.0 
84.0,697.0,882.0 
86.0,672.0,879.0 
87.0,666.0,866.0 
91.0,662.0,855.0 
89.0,668.0,876.0 
97.0,698.0,875.0 
91.0,708.0,886.0 
91.0,709.0,886.0 
85.0,705.0,856.0 
99.0,701.0,868.0 
100.0,691.0,857.0 
97.0,682.0,856.0 
88.0,678.0,861.0 
77.0,674.0,854.0 
70.0,676.0,862.0 
74.0,690.0,873.0 
29.0,734.0,835.0 
27.0,725.0,831.0 
23.0,724.0,830.0 
38.0,720.0,830.0 
43.0,722.0,839.0 
50.0,725.0,832.0 
48.0,718.0,819.0 
37.0,710.0,816.0 
32.0,714.0,820.0 
34.0,730.0,825.0 
32.0,749.0,835.0 
22.0,740.0,834.0 
20.0,741.0,829.0 
8.0,730.0,826.0 
11.0,724.0,825.0 
23.0,725.0,830.0 
29.0,728.0,843.0 
26.0,727.0,837.0 
21.0,715.0,844.0 
26.0,717.0,854.0 
32.0,728.0,858.0 
32.0,734.0,851.0 
21.0,720.0,858.0 
28.0,720.0,864.0 
28.0,720.0,870.0 
25.0,722.0,865.0 
27.0,731.0,869.0 
27.0,737.0,864.0 
31.0,730.0,857.0 
29.0,717.0,834.0 
22.0,704.0,833.0 
26.0,712.0,823.0 
25.0,720.0,832.0 
26.0,725.0,837.0 
30.0,744.0,851.0 
32.0,741.0,860.0 
30.0,736.0,847.0 
24.0,723.0,847.0 
34.0,720.0,845.0 
35.0,716.0,836.0 
36.0,711.0,839.0 
34.0,735.0,848.0 
39.0,723.0,850.0 
31.0,719.0,842.0 
23.0,711.0,836.0 
26.0,714.0,837.0 
27.0,724.0,844.0 
25.0,726.0,850.0 
24.0,720.0,841.0 
23.0,722.0,850.0 
32.0,722.0,850.0 
36.0,724.0,845.0 
33.0,723.0,841.0 
35.0,717.0,835.0 
28.0,715.0,835.0 
26.0,709.0,837.0 
32.0,711.0,839.0 
34.0,729.0,850.0 
41.0,729.0,861.0 
36.0,728.0,855.0 
26.0,721.0,833.0 
16.0,697.0,831.0 
16.0,700.0,828.0 
23.0,707.0,837.0 
28.0,716.0,838.0 
36.0,724.0,844.0 
39.0,723.0,842.0 
42.0,723.0,834.0 
39.0,718.0,837.0 
36.0,712.0,846.0 
33.0,714.0,851.0 
40.0,716.0,823.0 
10.0,731.0,852.0 
41.0,713.0,872.0 
43.0,716.0,856.0 
33.0,703.0,840.0 
25.0,691.0,832.0 
8.0,714.0,841.0 
9.0,725.0,849.0 
13.0,737.0,851.0 
9.0,747.0,858.0 
9.0,746.0,853.0 
18.0,728.0,856.0 
28.0,725.0,861.0 
35.0,715.0,862.0 
28.0,691.0,854.0 
22.0,697.0,852.0 
26.0,701.0,855.0 
27.0,730.0,875.0 
28.0,733.0,873.0 
24.0,729.0,866.0 
31.0,720.0,855.0 
18.0,703.0,847.0 
20.0,704.0,838.0 
24.0,713.0,846.0 
26.0,723.0,860.0 
27.0,721.0,837.0 
23.0,723.0,841.0 
22.0,720.0,838.0 
24.0,724.0,846.0 
31.0,724.0,846.0 
24.0,710.0,839.0 
24.0,699.0,827.0 
24.0,699.0,820.0 
33.0,710.0,823.0 
31.0,713.0,830.0 
25.0,713.0,840.0 
15.0,715.0,848.0 
18.0,723.0,852.0 
23.0,727.0,857.0 
25.0,722.0,858.0 
27.0,725.0,853.0 
24.0,721.0,859.0 
19.0,713.0,852.0 
18.0,709.0,856.0 
20.0,711.0,845.0 
26.0,708.0,836.0 
26.0,711.0,847.0 
29.0,714.0,847.0 
36.0,720.0,853.0 
22.0,714.0,851.0 
23.0,712.0,850.0 
22.0,731.0,848.0 
16.0,732.0,856.0 
9.0,719.0,851.0 
9.0,720.0,845.0 
18.0,717.0,859.0 
16.0,716.0,843.0 
21.0,709.0,844.0 
25.0,721.0,838.0 
33.0,717.0,857.0 
44.0,719.0,846.0 
45.0,716.0,849.0 
38.0,718.0,855.0 
28.0,711.0,845.0 
10.0,700.0,845.0 
9.0,712.0,838.0 
12.0,721.0,846.0 
19.0,728.0,862.0 
28.0,733.0,860.0 
26.0,721.0,858.0 
27.0,717.0,851.0 
22.0,707.0,844.0 
28.0,705.0,844.0 
23.0,707.0,851.0 
23.0,719.0,842.0 
24.0,709.0,839.0 
20.0,713.0,842.0 
27.0,720.0,853.0 
28.0,719.0,849.0 
28.0,708.0,848.0 
20.0,711.0,844.0 
21.0,712.0,847.0 
13.0,710.0,843.0 
14.0,727.0,851.0 
14.0,726.0,846.0 
13.0,724.0,843.0 
10.0,715.0,857.0 
16.0,711.0,841.0 
21.0,707.0,840.0 
21.0,710.0,834.0 
25.0,704.0,847.0 
25.0,723.0,856.0 
24.0,717.0,857.0 
15.0,718.0,862.0 
12.0,719.0,854.0 
19.0,721.0,851.0 
18.0,713.0,856.0 
17.0,709.0,854.0 
20.0,707.0,846.0 
21.0,717.0,848.0 
18.0,717.0,845.0 
19.0,722.0,849.0 
22.0,730.0,854.0 
16.0,712.0,840.0 
14.0,702.0,840.0 
22.0,704.0,844.0 
29.0,718.0,847.0 
27.0,719.0,853.0 
23.0,721.0,862.0 
24.0,716.0,862.0 
19.0,714.0,870.0 
19.0,708.0,865.0 
18.0,707.0,857.0 
23.0,709.0,851.0 
21.0,707.0,837.0 
16.0,705.0,835.0 
12.0,714.0,837.0 
12.0,709.0,859.0 
18.0,727.0,860.0 
22.0,733.0,856.0 
18.0,718.0,858.0 
13.0,705.0,849.0 
15.0,703.0,848.0 
21.0,714.0,857.0 
22.0,713.0,849.0 
22.0,715.0,854.0 
17.0,705.0,850.0 
11.0,700.0,852.0 
10.0,710.0,849.0 
-467.0,-12.0,992.0 
-471.0,12.0,986.0 
-487.0,-1.0,990.0 
-470.0,-4.0,987.0 
-453.0,-16.0,988.0 
-447.0,-24.0,1002.0 
-446.0,-35.0,1008.0 
-445.0,-35.0,1003.0 
-453.0,-30.0,1003.0 
-463.0,-16.0,997.0 
-484.0,-10.0,983.0 
-488.0,-4.0,986.0 
-477.0,-8.0,994.0 
-462.0,-13.0,998.0 
-443.0,-41.0,995.0 
-441.0,-42.0,1007.0 
-441.0,-48.0,1014.0 
-418.0,-38.0,1017.0 
-431.0,-29.0,1013.0 
-434.0,-16.0,1007.0 
-438.0,-12.0,1007.0 
-434.0,-17.0,1001.0 
-432.0,-22.0,1003.0 
-444.0,-26.0,993.0 
-452.0,-31.0,1001.0 
-452.0,-22.0,989.0 
-454.0,-21.0,980.0 
-477.0,-16.0,988.0 
-489.0,-9.0,981.0 
-474.0,3.0,980.0 
-470.0,2.0,978.0 
-463.0,-7.0,988.0 
-466.0,-9.0,989.0 
-463.0,-15.0,990.0 
-462.0,-14.0,989.0 
-466.0,-14.0,988.0 
-478.0,-13.0,988.0 
-477.0,-12.0,984.0 
-470.0,-10.0,987.0 
-474.0,-12.0,991.0 
-474.0,-19.0,1004.0 
-457.0,-22.0,993.0 
-456.0,-21.0,998.0 
-451.0,-33.0,998.0 
-445.0,-33.0,1005.0 
-429.0,-29.0,1002.0 
-435.0,-26.0,1010.0 
-446.0,-25.0,1003.0 
-467.0,-17.0,1006.0 
-454.0,-13.0,995.0 
-440.0,-11.0,1001.0 
-435.0,-14.0,1002.0 
-451.0,-18.0,994.0 
-449.0,-27.0,985.0 
-445.0,-9.0,1005.0 
-438.0,-26.0,1006.0 
-441.0,-24.0,1006.0 
-448.0,-23.0,1000.0 
-460.0,-18.0,996.0 
-469.0,-16.0,997.0 
-467.0,-13.0,991.0 
-452.0,-19.0,991.0 
-452.0,-19.0,999.0 
-455.0,-21.0,993.0 
-453.0,-27.0,1002.0 
-456.0,-33.0,1001.0 
-448.0,-29.0,998.0 
-455.0,-23.0,992.0 
-472.0,-21.0,1000.0 
-472.0,-15.0,997.0 
-463.0,-14.0,995.0 
-453.0,-8.0,997.0 
-442.0,-14.0,997.0 
-440.0,-17.0,990.0 
-445.0,-21.0,995.0 
-442.0,-28.0,1003.0 
-465.0,-32.0,1004.0 
-464.0,-31.0,1003.0 
-460.0,-26.0,1000.0 
-472.0,-11.0,1000.0 
-461.0,-12.0,996.0 
-450.0,-9.0,991.0 
-447.0,-13.0,1004.0 
-448.0,-18.0,1012.0 
-431.0,-34.0,994.0 
-441.0,-22.0,1001.0 
-449.0,-29.0,994.0 
-456.0,-18.0,990.0 
-438.0,-31.0,1004.0 
-447.0,-25.0,1015.0 
-446.0,-26.0,999.0 
-446.0,-16.0,999.0 
-433.0,-7.0,1003.0 
-438.0,-13.0,1002.0 
-447.0,-10.0,1002.0 
-459.0,-20.0,994.0 
-471.0,-13.0,991.0 
-468.0,-23.0,1009.0 
-455.0,-22.0,1002.0 
-433.0,-16.0,1000.0 
-432.0,-13.0,1001.0 
-429.0,-12.0,1002.0 
-420.0,-27.0,1009.0 
-427.0,-22.0,1006.0 
-437.0,-21.0,1004.0 
-447.0,-10.0,998.0 
-453.0,-7.0,1000.0 
-444.0,-3.0,1000.0 
-448.0,-10.0,1003.0 
-445.0,0.0,1002.0 
-430.0,-19.0,997.0 
-442.0,-30.0,1001.0 
-449.0,-38.0,1007.0 
-443.0,-32.0,1003.0 
-447.0,-25.0,1014.0 
-450.0,-14.0,994.0 
-461.0,-8.0,1000.0 
-457.0,-3.0,1000.0 
-448.0,-9.0,998.0 
-446.0,-14.0,999.0 
-453.0,-16.0,995.0 
-459.0,-15.0,1002.0 
-443.0,-20.0,1003.0 
-441.0,-29.0,1006.0 
-443.0,-30.0,1013.0 
-443.0,-30.0,996.0 
-450.0,-20.0,994.0 
-452.0,-17.0,994.0 
-462.0,-16.0,998.0 
-473.0,-13.0,1003.0 
-448.0,-3.0,1001.0 
-441.0,-1.0,1002.0 
-441.0,-5.0,1001.0 
-438.0,-12.0,1000.0 
-428.0,-14.0,1001.0 
-425.0,-13.0,1004.0 
-432.0,-21.0,1009.0 
-434.0,-18.0,1015.0 
-446.0,-21.0,1007.0 
-458.0,-34.0,1002.0 
-479.0,-22.0,1010.0 
-464.0,-11.0,1002.0 
-443.0,-15.0,998.0 
-430.0,-13.0,1009.0 
-435.0,-19.0,1006.0 
-438.0,-22.0,1007.0 
-446.0,-26.0,1007.0 
-448.0,-18.0,1005.0 
-452.0,-15.0,1007.0 
-472.0,-14.0,998.0 
-485.0,-4.0,998.0 
-467.0,-9.0,1000.0 
-455.0,-7.0,995.0 
-439.0,-15.0,997.0 
-436.0,-18.0,995.0 
-437.0,-15.0,998.0 
-436.0,-13.0,997.0 
-448.0,-12.0,993.0 
-449.0,-11.0,998.0 
-444.0,-3.0,1001.0 
-438.0,-7.0,1002.0 
-443.0,-23.0,1002.0 
-456.0,-25.0,1001.0 
-458.0,-23.0,1011.0 
-443.0,-26.0,1012.0 
-441.0,-21.0,1009.0 
-442.0,-21.0,1006.0 
-449.0,-16.0,1004.0 
-455.0,-8.0,995.0 
-449.0,-14.0,1000.0 
-441.0,-15.0,1008.0 
-449.0,-18.0,998.0 
-452.0,-15.0,1007.0 
-446.0,-15.0,998.0 
-443.0,-17.0,1007.0 
-442.0,-19.0,994.0 
-425.0,-11.0,1002.0 
-424.0,-5.0,996.0 
-432.0,-6.0,998.0 
-446.0,-5.0,978.0 
-473.0,-7.0,983.0 
-468.0,-10.0,997.0 
-459.0,-12.0,996.0 
-451.0,-13.0,999.0 
-449.0,-20.0,1003.0 
-455.0,-26.0,1005.0 
-458.0,-26.0,1007.0 
-454.0,-24.0,1004.0 
-451.0,-13.0,998.0 
-452.0,-15.0,1007.0 
-444.0,-14.0,1007.0 
-441.0,-5.0,1005.0 
-441.0,-17.0,998.0 
-449.0,-12.0,993.0 
-458.0,-9.0,985.0 
-453.0,-14.0,993.0 
-449.0,-21.0,996.0 
-438.0,-17.0,1005.0 
-437.0,-18.0,1007.0 
-439.0,-16.0,1016.0 
-14.0,-293.0,1087.0 
-31.0,-302.0,1093.0 
-36.0,-301.0,1089.0 
-46.0,-303.0,1091.0 
-26.0,-296.0,1085.0 
-29.0,-292.0,1088.0 
-21.0,-297.0,1078.0 
-20.0,-287.0,1082.0 
-11.0,-287.0,1092.0 
-4.0,-284.0,1091.0 
-8.0,-286.0,1089.0 
-15.0,-284.0,1082.0 
-52.0,-284.0,1092.0 
-41.0,-272.0,1075.0 
-29.0,-263.0,1070.0 
-22.0,-279.0,1076.0 
-8.0,-282.0,1074.0 
-8.0,-285.0,1087.0 
-7.0,-287.0,1096.0 
-10.0,-295.0,1093.0 
-14.0,-301.0,1101.0 
-20.0,-306.0,1093.0 
-28.0,-311.0,1089.0 
-40.0,-307.0,1094.0 
-25.0,-297.0,1086.0 
-26.0,-285.0,1088.0 
-24.0,-292.0,1087.0 
-10.0,-278.0,1089.0 
-11.0,-283.0,1095.0 
-10.0,-286.0,1097.0 
-21.0,-284.0,1093.0 
-35.0,-283.0,1093.0 
-38.0,-283.0,1078.0 
-49.0,-285.0,1081.0 
-49.0,-280.0,1080.0 
-22.0,-284.0,1085.0 
-25.0,-282.0,1086.0 
-25.0,-287.0,1086.0 
-13.0,-285.0,1093.0 
-9.0,-288.0,1095.0 
-15.0,-288.0,1096.0 
-24.0,-288.0,1079.0 
-39.0,-289.0,1103.0 
-34.0,-293.0,1073.0 
-14.0,-289.0,1078.0 
-31.0,-288.0,1087.0 
-16.0,-276.0,1073.0 
-17.0,-281.0,1086.0 
-17.0,-281.0,1084.0 
-20.0,-276.0,1087.0 
-25.0,-289.0,1090.0 
-36.0,-294.0,1086.0 
-45.0,-286.0,1088.0 
-35.0,-282.0,1086.0 
-6.0,-279.0,1082.0 
-14.0,-286.0,1090.0 
-21.0,-301.0,1088.0 
-25.0,-295.0,1094.0 
-14.0,-283.0,1087.0 
-23.0,-282.0,1086.0 
-37.0,-286.0,1095.0 
-27.0,-286.0,1076.0 
-46.0,-277.0,1086.0 
-42.0,-276.0,1091.0 
-30.0,-269.0,1081.0 
-28.0,-268.0,1088.0 
-21.0,-275.0,1082.0 
-20.0,-274.0,1087.0 
-20.0,-284.0,1090.0 
-16.0,-290.0,1091.0 
-20.0,-296.0,1091.0 
-24.0,-296.0,1087.0 
-20.0,-297.0,1093.0 
-13.0,-275.0,1092.0 
-14.0,-282.0,1084.0 
-22.0,-282.0,1093.0 
-18.0,-280.0,1090.0 
-16.0,-269.0,1091.0 
-30.0,-266.0,1084.0 
-31.0,-265.0,1086.0 
-35.0,-265.0,1083.0 
-43.0,-268.0,1091.0 
-42.0,-279.0,1092.0 
-23.0,-274.0,1092.0 
-19.0,-281.0,1094.0 
-19.0,-291.0,1090.0 
-19.0,-289.0,1094.0 
-8.0,-287.0,1094.0 
-15.0,-288.0,1095.0 
-22.0,-284.0,1089.0 
-28.0,-282.0,1089.0 
-34.0,-286.0,1094.0 
-35.0,-277.0,1091.0 
-34.0,-275.0,1093.0 
-22.0,-273.0,1079.0 
-20.0,-273.0,1088.0 
-16.0,-276.0,1087.0 
-31.0,-276.0,1087.0 
-27.0,-276.0,1085.0 
-27.0,-280.0,1083.0 
-34.0,-275.0,1093.0 
-14.0,-274.0,1093.0 
-19.0,-274.0,1088.0 
-17.0,-276.0,1095.0 
-20.0,-278.0,1088.0 
-30.0,-280.0,1079.0 
-31.0,-279.0,1090.0 
-37.0,-276.0,1090.0 
-32.0,-278.0,1086.0 
-27.0,-277.0,1097.0 
-25.0,-291.0,1095.0 
-35.0,-285.0,1110.0 
-21.0,-291.0,1100.0 
-25.0,-287.0,1101.0 
-17.0,-280.0,1096.0 
-18.0,-283.0,1089.0 
-41.0,-279.0,1087.0 
-38.0,-272.0,1083.0 
-33.0,-263.0,1082.0 
-20.0,-266.0,1082.0 
-22.0,-275.0,1094.0 
-28.0,-276.0,1087.0 
-24.0,-281.0,1084.0 
-27.0,-275.0,1100.0 
-29.0,-279.0,1087.0 
-30.0,-280.0,1086.0 
-28.0,-277.0,1096.0 
-29.0,-282.0,1091.0 
-23.0,-278.0,1088.0 
-36.0,-270.0,1091.0 
-12.0,-279.0,1086.0 
-23.0,-267.0,1098.0 
-17.0,-292.0,1090.0 
-21.0,-293.0,1092.0 
-13.0,-280.0,1086.0 
-30.0,-300.0,1087.0 
-28.0,-285.0,1089.0 
-29.0,-270.0,1084.0 
-27.0,-267.0,1090.0 
-25.0,-271.0,1091.0 
-28.0,-274.0,1088.0 
-19.0,-271.0,1091.0 
-26.0,-270.0,1083.0 
-33.0,-268.0,1081.0 
-30.0,-270.0,1084.0 
-32.0,-277.0,1088.0 
-25.0,-277.0,1084.0 
-28.0,-300.0,1105.0 
-24.0,-302.0,1102.0 
-15.0,-287.0,1100.0 
-13.0,-287.0,1092.0 
-23.0,-280.0,1100.0 
-15.0,-282.0,1090.0 
-16.0,-281.0,1092.0 
-22.0,-271.0,1084.0 
-23.0,-264.0,1081.0 
-18.0,-263.0,1086.0 
-23.0,-262.0,1077.0 
-29.0,-261.0,1084.0 
-30.0,-273.0,1090.0 
-23.0,-272.0,1090.0 
-17.0,-280.0,1093.0 
-25.0,-288.0,1094.0 
-30.0,-290.0,1095.0 
-36.0,-296.0,1096.0 
-34.0,-301.0,1097.0 
-26.0,-297.0,1094.0 
-20.0,-286.0,1087.0 
-31.0,-284.0,1097.0 
-33.0,-283.0,1090.0 
-30.0,-269.0,1092.0 
-22.0,-260.0,1086.0 
-16.0,-260.0,1086.0 
-26.0,-260.0,1076.0 
-29.0,-259.0,1088.0 
-28.0,-266.0,1088.0 
-29.0,-266.0,1083.0 
-23.0,-276.0,1085.0 
-27.0,-291.0,1095.0 
-23.0,-289.0,1099.0 
-26.0,-291.0,1094.0 
-20.0,-293.0,1101.0 
-15.0,-288.0,1098.0 
-15.0,-289.0,1089.0 
-22.0,-288.0,1089.0 
-26.0,-281.0,1079.0 
-15.0,-271.0,1086.0 
-17.0,-270.0,1085.0 
-32.0,-274.0,1090.0 
-38.0,-271.0,1090.0 
-28.0,-268.0,1089.0 
-25.0,-262.0,1090.0 
-28.0,-268.0,1086.0 
-27.0,-262.0,1085.0 
-28.0,-274.0,1081.0 
-35.0,-277.0,1091.0 
-27.0,-283.0,1090.0 
-24.0,-277.0,1087.0 
-16.0,-297.0,1099.0 
-20.0,-296.0,1106.0 
-42.0,-100.0,1117.0 
-41.0,-89.0,1123.0 
-58.0,-93.0,1121.0 
-66.0,-93.0,1129.0 
-59.0,-94.0,1124.0 
-48.0,-96.0,1128.0 
-36.0,-111.0,1123.0 
-44.0,-104.0,1122.0 
-43.0,-111.0,1138.0 
-38.0,-111.0,1130.0 
-52.0,-116.0,1139.0 
-52.0,-108.0,1133.0 
-57.0,-112.0,1116.0 
-48.0,-92.0,1122.0 
-50.0,-91.0,1124.0 
-53.0,-97.0,1126.0 
-55.0,-92.0,1106.0 
-58.0,-97.0,1123.0 
-61.0,-99.0,1127.0 
-47.0,-91.0,1119.0 
-48.0,-97.0,1127.0 
-54.0,-94.0,1127.0 
-43.0,-96.0,1130.0 
-43.0,-98.0,1128.0 
-45.0,-105.0,1130.0 
-41.0,-104.0,1121.0 
-49.0,-107.0,1126.0 
-52.0,-104.0,1128.0 
-47.0,-83.0,1122.0 
-34.0,-94.0,1123.0 
-32.0,-100.0,1130.0 
-35.0,-104.0,1127.0 
-36.0,-98.0,1129.0 
-42.0,-97.0,1133.0 
-47.0,-100.0,1124.0 
-46.0,-102.0,1134.0 
-44.0,-105.0,1138.0 
-48.0,-90.0,1115.0 
-52.0,-99.0,1125.0 
-48.0,-101.0,1118.0 
-43.0,-97.0,1120.0 
-41.0,-96.0,1119.0 
-42.0,-97.0,1122.0 
-40.0,-97.0,1121.0 
-50.0,-105.0,1131.0 
-57.0,-105.0,1126.0 
-52.0,-94.0,1119.0 
-50.0,-98.0,1108.0 
-43.0,-96.0,1120.0 
-46.0,-95.0,1126.0 
-51.0,-99.0,1124.0 
-51.0,-94.0,1125.0 
-43.0,-94.0,1117.0 
-47.0,-96.0,1124.0 
-44.0,-93.0,1128.0 
-44.0,-96.0,1137.0 
-50.0,-101.0,1122.0 
-49.0,-105.0,1124.0 
-47.0,-106.0,1123.0 
-43.0,-109.0,1132.0 
-38.0,-112.0,1132.0 
-39.0,-111.0,1131.0 
-41.0,-102.0,1135.0 
-46.0,-93.0,1119.0 
-50.0,-91.0,1122.0 
-54.0,-94.0,1119.0 
-58.0,-88.0,1121.0 
-50.0,-86.0,1122.0 
-49.0,-97.0,1117.0 
-47.0,-96.0,1124.0 
-38.0,-99.0,1118.0 
-42.0,-100.0,1126.0 
-44.0,-104.0,1128.0 
-49.0,-102.0,1125.0 
-49.0,-101.0,1127.0 
-60.0,-99.0,1128.0 
-52.0,-98.0,1128.0 
-47.0,-96.0,1130.0 
-44.0,-103.0,1123.0 
-42.0,-99.0,1123.0 
-43.0,-99.0,1121.0 
-41.0,-99.0,1113.0 
-42.0,-101.0,1129.0 
-44.0,-95.0,1125.0 
-44.0,-97.0,1123.0 
-43.0,-95.0,1117.0 
-45.0,-110.0,1115.0 
-48.0,-96.0,1121.0 
-46.0,-100.0,1123.0 
-51.0,-100.0,1127.0 
-58.0,-84.0,1129.0 
-54.0,-103.0,1133.0 
-47.0,-102.0,1128.0 
-50.0,-105.0,1135.0 
-44.0,-106.0,1115.0 
-50.0,-95.0,1122.0 
-51.0,-91.0,1115.0 
-51.0,-99.0,1118.0 
-56.0,-96.0,1089.0 
-39.0,-90.0,1123.0 
-34.0,-84.0,1116.0 
-40.0,-93.0,1121.0 
-33.0,-95.0,1116.0 
-47.0,-99.0,1121.0 
-50.0,-99.0,1127.0 
-57.0,-98.0,1126.0 
-54.0,-105.0,1124.0 
-56.0,-109.0,1131.0 
-60.0,-106.0,1134.0 
-57.0,-110.0,1126.0 
-23.0,-112.0,1116.0 
-58.0,-100.0,1151.0 
-46.0,-108.0,1123.0 
-44.0,-100.0,1128.0 
-33.0,-107.0,1127.0 
-42.0,-92.0,1122.0 
-66.0,-98.0,1131.0 
-53.0,-89.0,1120.0 
-53.0,-94.0,1129.0 
-42.0,-92.0,1124.0 
-44.0,-92.0,1114.0 
-50.0,-92.0,1121.0 
-37.0,-82.0,1118.0 
-35.0,-88.0,1123.0 
-39.0,-94.0,1135.0 
-47.0,-96.0,1128.0 
-46.0,-104.0,1125.0 
-41.0,-107.0,1129.0 
-46.0,-108.0,1124.0 
-50.0,-106.0,1131.0 
-52.0,-103.0,1128.0 
-53.0,-98.0,1127.0 
-54.0,-97.0,1125.0 
-44.0,-91.0,1120.0 
-52.0,-95.0,1115.0 
-57.0,-98.0,1115.0 
-57.0,-98.0,1134.0 
-59.0,-99.0,1126.0 
-51.0,-96.0,1120.0 
-50.0,-93.0,1119.0 
-50.0,-98.0,1127.0 
-49.0,-104.0,1121.0 
-41.0,-101.0,1128.0 
-47.0,-103.0,1125.0 
-44.0,-105.0,1127.0 
-40.0,-100.0,1122.0 
-41.0,-99.0,1122.0 
-46.0,-99.0,1128.0 
-41.0,-99.0,1124.0 
-33.0,-97.0,1122.0 
-44.0,-99.0,1119.0 
-50.0,-97.0,1126.0 
-49.0,-90.0,1118.0 
-43.0,-91.0,1121.0 
-52.0,-97.0,1117.0 
-58.0,-97.0,1118.0 
-57.0,-99.0,1123.0 
-48.0,-98.0,1127.0 
-41.0,-97.0,1127.0 
-38.0,-103.0,1129.0 
-48.0,-104.0,1132.0 
-44.0,-107.0,1129.0 
-53.0,-106.0,1130.0 
-49.0,-94.0,1123.0 
-50.0,-92.0,1121.0 
-49.0,-93.0,1119.0 
-49.0,-91.0,1121.0 
-51.0,-94.0,1121.0 
-44.0,-99.0,1124.0 
-40.0,-92.0,1121.0 
-49.0,-99.0,1125.0 
-52.0,-96.0,1125.0 
-49.0,-102.0,1122.0 
-49.0,-104.0,1130.0 
-46.0,-104.0,1119.0 
-47.0,-99.0,1123.0 
-36.0,-93.0,1131.0 
-40.0,-98.0,1126.0 
-42.0,-97.0,1122.0 
-41.0,-82.0,1125.0 
-42.0,-93.0,1125.0 
-50.0,-93.0,1126.0 
-53.0,-101.0,1128.0 
-45.0,-94.0,1120.0 
-46.0,-95.0,1119.0 
-41.0,-96.0,1124.0 
-46.0,-97.0,1120.0 
-44.0,-92.0,1122.0 
-42.0,-98.0,1120.0 
-56.0,-90.0,1129.0 
-57.0,-95.0,1132.0 
-39.0,-97.0,1127.0 
-45.0,-97.0,1130.0 
-44.0,-104.0,1128.0 
-42.0,-101.0,1126.0 
-51.0,-101.0,1123.0 
-54.0,-98.0,1128.0 
-50.0,-99.0,1129.0 
-45.0,-101.0,1121.0 
-42.0,-99.0,1123.0 
79.0,-217.0,1112.0 
74.0,-217.0,1104.0 
69.0,-208.0,1102.0 
84.0,-214.0,1105.0 
88.0,-203.0,1096.0 
87.0,-211.0,1110.0 
89.0,-212.0,1111.0 
90.0,-215.0,1113.0 
85.0,-216.0,1115.0 
78.0,-215.0,1109.0 
70.0,-212.0,1111.0 
70.0,-203.0,1103.0 
75.0,-201.0,1101.0 
84.0,-199.0,1106.0 
82.0,-210.0,1110.0 
81.0,-217.0,1116.0 
89.0,-213.0,1118.0 
86.0,-213.0,1120.0 
78.0,-211.0,1117.0 
79.0,-206.0,1110.0 
81.0,-199.0,1114.0 
76.0,-210.0,1109.0 
80.0,-208.0,1112.0 
91.0,-220.0,1109.0 
86.0,-216.0,1120.0 
87.0,-216.0,1111.0 
92.0,-218.0,1107.0 
89.0,-213.0,1111.0 
83.0,-210.0,1111.0 
77.0,-214.0,1110.0 
66.0,-199.0,1116.0 
68.0,-208.0,1111.0 
71.0,-207.0,1106.0 
84.0,-203.0,1111.0 
88.0,-205.0,1110.0 
93.0,-207.0,1113.0 
98.0,-213.0,1111.0 
87.0,-208.0,1107.0 
86.0,-212.0,1110.0 
77.0,-215.0,1114.0 
73.0,-217.0,1119.0 
80.0,-212.0,1114.0 
84.0,-208.0,1105.0 
77.0,-206.0,1112.0 
78.0,-207.0,1104.0 
75.0,-204.0,1119.0 
81.0,-209.0,1110.0 
87.0,-207.0,1112.0 
92.0,-207.0,1111.0 
93.0,-214.0,1112.0 
91.0,-215.0,1110.0 
100.0,-216.0,1115.0 
67.0,-224.0,1119.0 
63.0,-219.0,1118.0 
74.0,-208.0,1119.0 
78.0,-204.0,1106.0 
81.0,-202.0,1110.0 
79.0,-206.0,1117.0 
80.0,-204.0,1109.0 
74.0,-211.0,1119.0 
85.0,-222.0,1121.0 
78.0,-213.0,1124.0 
91.0,-211.0,1101.0 
94.0,-213.0,1101.0 
99.0,-208.0,1106.0 
94.0,-212.0,1107.0 
79.0,-214.0,1109.0 
65.0,-211.0,1119.0 
74.0,-217.0,1119.0 
84.0,-208.0,1113.0 
82.0,-210.0,1113.0 
78.0,-199.0,1109.0 
69.0,-205.0,1113.0 
69.0,-202.0,1112.0 
83.0,-208.0,1110.0 
81.0,-209.0,1114.0 
79.0,-200.0,1126.0 
82.0,-213.0,1116.0 
95.0,-216.0,1108.0 
101.0,-213.0,1120.0 
103.0,-219.0,1106.0 
85.0,-214.0,1107.0 
74.0,-211.0,1105.0 
62.0,-199.0,1100.0 
60.0,-202.0,1114.0 
63.0,-197.0,1110.0 
57.0,-204.0,1116.0 
70.0,-207.0,1114.0 
80.0,-213.0,1112.0 
86.0,-217.0,1121.0 
97.0,-213.0,1111.0 
105.0,-215.0,1108.0 
95.0,-214.0,1110.0 
87.0,-219.0,1109.0 
75.0,-214.0,1111.0 
79.0,-208.0,1109.0 
80.0,-205.0,1111.0 
84.0,-204.0,1108.0 
73.0,-220.0,1105.0 
78.0,-204.0,1108.0 
85.0,-211.0,1112.0 
84.0,-210.0,1104.0 
70.0,-209.0,1115.0 
77.0,-207.0,1108.0 
69.0,-202.0,1112.0 
66.0,-205.0,1113.0 
90.0,-208.0,1109.0 
81.0,-215.0,1109.0 
83.0,-209.0,1114.0 
90.0,-215.0,1115.0 
97.0,-213.0,1111.0 
88.0,-218.0,1111.0 
86.0,-209.0,1115.0 
85.0,-209.0,1112.0 
78.0,-204.0,1107.0 
66.0,-201.0,1112.0 
66.0,-196.0,1107.0 
68.0,-200.0,1114.0 
64.0,-206.0,1112.0 
67.0,-207.0,1123.0 
78.0,-217.0,1118.0 
88.0,-217.0,1118.0 
83.0,-220.0,1116.0 
92.0,-219.0,1117.0 
86.0,-212.0,1111.0 
90.0,-209.0,1106.0 
85.0,-209.0,1100.0 
78.0,-211.0,1107.0 
75.0,-210.0,1112.0 
78.0,-209.0,1119.0 
71.0,-212.0,1122.0 
77.0,-204.0,1113.0 
83.0,-202.0,1111.0 
79.0,-205.0,1107.0 
78.0,-201.0,1115.0 
79.0,-217.0,1113.0 
71.0,-202.0,1117.0 
92.0,-201.0,1112.0 
101.0,-208.0,1108.0 
98.0,-201.0,1108.0 
96.0,-213.0,1105.0 
81.0,-217.0,1114.0 
74.0,-213.0,1115.0 
65.0,-212.0,1118.0 
65.0,-209.0,1114.0 
71.0,-200.0,1102.0 
77.0,-198.0,1103.0 
76.0,-205.0,1103.0 
83.0,-203.0,1120.0 
87.0,-217.0,1120.0 
94.0,-219.0,1119.0 
97.0,-225.0,1123.0 
92.0,-209.0,1110.0 
87.0,-208.0,1103.0 
78.0,-200.0,1103.0 
81.0,-195.0,1102.0 
79.0,-198.0,1106.0 
85.0,-203.0,1115.0 
87.0,-215.0,1114.0 
76.0,-212.0,1116.0 
82.0,-216.0,1111.0 
72.0,-214.0,1115.0 
74.0,-206.0,1113.0 
77.0,-206.0,1107.0 
95.0,-211.0,1105.0 
82.0,-211.0,1114.0 
80.0,-212.0,1108.0 
76.0,-211.0,1111.0 
93.0,-211.0,1107.0 
92.0,-214.0,1110.0 
96.0,-212.0,1114.0 
87.0,-213.0,1106.0 
81.0,-214.0,1110.0 
70.0,-216.0,1115.0 
61.0,-205.0,1107.0 
69.0,-197.0,1105.0 
78.0,-198.0,1112.0 
87.0,-207.0,1110.0 
94.0,-207.0,1111.0 
95.0,-215.0,1115.0 
75.0,-221.0,1117.0 
81.0,-213.0,1121.0 
84.0,-213.0,1108.0 
78.0,-203.0,1111.0 
90.0,-203.0,1114.0 
96.0,-204.0,1109.0 
89.0,-216.0,1111.0 
88.0,-214.0,1115.0 
77.0,-210.0,1109.0 
81.0,-210.0,1107.0 
97.0,-199.0,1099.0 
88.0,-215.0,1110.0 
106.0,-219.0,1112.0 
102.0,-223.0,1106.0 
82.0,-226.0,1114.0 
56.0,-212.0,1113.0 
69.0,-202.0,1109.0 
69.0,-201.0,1110.0 
77.0,-203.0,1118.0 
79.0,-209.0,1108.0 
70.0,-112.0,1135.0 
65.0,-96.0,1138.0 
56.0,-93.0,1139.0 
75.0,-99.0,1146.0 
85.0,-104.0,1137.0 
90.0,-99.0,1142.0 
94.0,-104.0,1148.0 
109.0,-105.0,1132.0 
105.0,-100.0,1117.0 
91.0,-107.0,1103.0 
85.0,-83.0,1099.0 
108.0,-70.0,1087.0 
99.0,-70.0,1095.0 
90.0,-82.0,1101.0 
87.0,-94.0,1132.0 
99.0,-115.0,1123.0 
117.0,-121.0,1149.0 
111.0,-133.0,1163.0 
106.0,-143.0,1145.0 
58.0,-128.0,1153.0 
81.0,-133.0,1158.0 
181.0,-133.0,1117.0 
149.0,-124.0,1142.0 
68.0,-134.0,1153.0 
75.0,-127.0,1133.0 
112.0,-133.0,1065.0 
97.0,-99.0,1091.0 
124.0,-89.0,1098.0 
114.0,-73.0,1103.0 
132.0,-74.0,1107.0 
115.0,-88.0,1097.0 
113.0,-107.0,1124.0 
101.0,-126.0,1132.0 
98.0,-126.0,1143.0 
121.0,-142.0,1145.0 
112.0,-160.0,1165.0 
120.0,-143.0,1153.0 
139.0,-151.0,1147.0 
150.0,-135.0,1126.0 
155.0,-130.0,1120.0 
149.0,-102.0,1091.0 
142.0,-87.0,1086.0 
134.0,-84.0,1085.0 
120.0,-96.0,1092.0 
148.0,-103.0,1085.0 
163.0,-97.0,1120.0 
161.0,-123.0,1131.0 
206.0,-154.0,1141.0 
212.0,-157.0,1150.0 
218.0,-160.0,1123.0 
220.0,-168.0,1107.0 
213.0,-141.0,1110.0 
209.0,-131.0,1100.0 
195.0,-142.0,1102.0 
175.0,-139.0,1118.0 
177.0,-156.0,1109.0 
182.0,-143.0,1123.0 
204.0,-160.0,1118.0 
211.0,-160.0,1117.0 
231.0,-162.0,1119.0 
226.0,-177.0,1124.0 
260.0,-164.0,1103.0 
259.0,-164.0,1101.0 
248.0,-172.0,1091.0 
227.0,-176.0,1108.0 
228.0,-208.0,1106.0 
230.0,-199.0,1126.0 
232.0,-189.0,1121.0 
238.0,-183.0,1112.0 
254.0,-162.0,1106.0 
268.0,-184.0,1108.0 
262.0,-176.0,1082.0 
248.0,-181.0,1098.0 
236.0,-179.0,1093.0 
231.0,-179.0,1100.0 
231.0,-182.0,1101.0 
230.0,-193.0,1139.0 
241.0,-203.0,1147.0 
258.0,-200.0,1134.0 
275.0,-190.0,1126.0 
271.0,-172.0,1090.0 
262.0,-167.0,1095.0 
251.0,-161.0,1080.0 
243.0,-144.0,1076.0 
239.0,-126.0,1090.0 
238.0,-113.0,1080.0 
227.0,-126.0,1103.0 
212.0,-137.0,1127.0 
218.0,-184.0,1156.0 
237.0,-194.0,1161.0 
254.0,-200.0,1145.0 
278.0,-188.0,1120.0 
272.0,-145.0,1095.0 
266.0,-126.0,1073.0 
237.0,-123.0,1067.0 
222.0,-109.0,1074.0 
215.0,-110.0,1098.0 
220.0,-116.0,1088.0 
220.0,-114.0,1108.0 
222.0,-129.0,1136.0 
263.0,-164.0,1139.0 
281.0,-178.0,1162.0 
293.0,-186.0,1150.0 
291.0,-182.0,1142.0 
238.0,-146.0,1122.0 
228.0,-130.0,1089.0 
196.0,-106.0,1086.0 
186.0,-79.0,1074.0 
201.0,-53.0,1067.0 
215.0,-75.0,1070.0 
226.0,-85.0,1096.0 
222.0,-122.0,1134.0 
225.0,-125.0,1147.0 
216.0,-138.0,1155.0 
219.0,-126.0,1160.0 
229.0,-122.0,1141.0 
242.0,-69.0,1152.0 
224.0,-128.0,1091.0 
231.0,-99.0,1107.0 
227.0,-91.0,1096.0 
213.0,-92.0,1109.0 
207.0,-74.0,1115.0 
228.0,-72.0,1111.0 
204.0,-48.0,1103.0 
199.0,-51.0,1107.0 
210.0,-25.0,1101.0 
203.0,-12.0,1090.0 
166.0,-1.0,1105.0 
185.0,-6.0,1106.0 
195.0,-25.0,1114.0 
203.0,-41.0,1126.0 
227.0,-56.0,1144.0 
237.0,-47.0,1140.0 
220.0,-40.0,1130.0 
198.0,-19.0,1107.0 
160.0,18.0,1089.0 
147.0,29.0,1091.0 
140.0,13.0,1093.0 
163.0,-29.0,1121.0 
176.0,-49.0,1160.0 
184.0,-76.0,1185.0 
203.0,-86.0,1192.0 
208.0,-55.0,1156.0 
179.0,-35.0,1138.0 
173.0,8.0,1120.0 
179.0,22.0,1097.0 
179.0,46.0,1074.0 
156.0,54.0,1066.0 
151.0,44.0,1075.0 
162.0,30.0,1091.0 
174.0,-21.0,1130.0 
183.0,-20.0,1141.0 
207.0,-17.0,1164.0 
207.0,-44.0,1163.0 
186.0,-37.0,1155.0 
190.0,-26.0,1136.0 
204.0,-21.0,1123.0 
212.0,-33.0,1100.0 
229.0,8.0,1084.0 
224.0,8.0,1072.0 
212.0,-1.0,1082.0 
202.0,-6.0,1111.0 
227.0,-17.0,1107.0 
217.0,-33.0,1135.0 
220.0,-27.0,1145.0 
249.0,-67.0,1152.0 
268.0,-68.0,1148.0 
261.0,-72.0,1142.0 
251.0,-72.0,1132.0 
238.0,-33.0,1109.0 
258.0,-16.0,1090.0 
265.0,-2.0,1064.0 
264.0,14.0,1047.0 
259.0,6.0,1065.0 
237.0,-21.0,1083.0 
275.0,-40.0,1095.0 
296.0,-60.0,1105.0 
277.0,-86.0,1141.0 
280.0,-93.0,1146.0 
295.0,-92.0,1127.0 
296.0,-87.0,1109.0 
298.0,-55.0,1071.0 
281.0,-41.0,1048.0 
269.0,-35.0,1056.0 
257.0,-38.0,1060.0 
293.0,-66.0,1074.0 
311.0,-87.0,1089.0 
328.0,-117.0,1102.0 
341.0,-142.0,1135.0 
359.0,-143.0,1118.0 
358.0,-147.0,1101.0 
335.0,-117.0,1073.0 
333.0,-85.0,997.0 
303.0,-42.0,986.0 
258.0,-54.0,1025.0 
255.0,-87.0,1049.0 
301.0,-189.0,1107.0 
377.0,-218.0,1120.0 
378.0,-249.0,1143.0 
373.0,-277.0,1153.0 
150.0,-318.0,1087.0 
170.0,-323.0,1088.0 
147.0,-324.0,1075.0 
125.0,-316.0,1078.0 
103.0,-284.0,1080.0 
75.0,-271.0,1100.0 
69.0,-255.0,1065.0 
71.0,-260.0,1060.0 
55.0,-296.0,1087.0 
59.0,-298.0,1098.0 
68.0,-306.0,1114.0 
81.0,-311.0,1107.0 
72.0,-314.0,1079.0 
64.0,-302.0,1075.0 
63.0,-297.0,1079.0 
58.0,-302.0,1076.0 
52.0,-312.0,1111.0 
38.0,-335.0,1080.0 
55.0,-312.0,1123.0 
167.0,-251.0,1028.0 
50.0,-332.0,1082.0 
11.0,-320.0,1141.0 
18.0,-320.0,1102.0 
52.0,-298.0,1064.0 
25.0,-305.0,1086.0 
-33.0,-283.0,1082.0 
-65.0,-276.0,1082.0 
-63.0,-261.0,1063.0 
-22.0,-258.0,1063.0 
-20.0,-252.0,1066.0 
-13.0,-261.0,1086.0 
18.0,-329.0,1120.0 
58.0,-370.0,1115.0 
15.0,-350.0,1121.0 
-14.0,-345.0,1137.0 
0.0,-305.0,1113.0 
7.0,-285.0,1089.0 
13.0,-270.0,1055.0 
-2.0,-258.0,1067.0 
-41.0,-243.0,1049.0 
-33.0,-256.0,1066.0 
-8.0,-271.0,1063.0 
19.0,-259.0,1096.0 
23.0,-303.0,1106.0 
16.0,-309.0,1131.0 
74.0,-291.0,1186.0 
102.0,-307.0,1182.0 
47.0,-310.0,1127.0 
33.0,-294.0,1092.0 
20.0,-293.0,1098.0 
34.0,-277.0,1072.0 
34.0,-251.0,1052.0 
21.0,-245.0,1071.0 
33.0,-238.0,1092.0 
37.0,-239.0,1063.0 
20.0,-221.0,1086.0 
27.0,-222.0,1076.0 
37.0,-223.0,1042.0 
43.0,-270.0,1049.0 
96.0,-308.0,1137.0 
124.0,-294.0,1054.0 
90.0,-279.0,1127.0 
62.0,-246.0,1119.0 
70.0,-249.0,1030.0 
64.0,-231.0,1132.0 
113.0,-228.0,1083.0 
103.0,-274.0,1112.0 
129.0,-285.0,1102.0 
121.0,-303.0,1109.0 
106.0,-304.0,1096.0 
100.0,-287.0,1089.0 
105.0,-271.0,1077.0 
102.0,-259.0,1074.0 
84.0,-263.0,1099.0 
64.0,-245.0,1100.0 
52.0,-237.0,1113.0 
50.0,-231.0,1098.0 
47.0,-232.0,1088.0 
37.0,-248.0,1095.0 
49.0,-255.0,1108.0 
76.0,-276.0,1112.0 
79.0,-280.0,1142.0 
73.0,-305.0,1144.0 
93.0,-302.0,1128.0 
88.0,-285.0,1130.0 
96.0,-262.0,1097.0 
121.0,-241.0,1074.0 
109.0,-236.0,1064.0 
105.0,-242.0,1049.0 
93.0,-236.0,1046.0 
91.0,-233.0,1061.0 
90.0,-225.0,1080.0 
103.0,-230.0,1094.0 
107.0,-255.0,1114.0 
71.0,-261.0,1128.0 
64.0,-274.0,1123.0 
73.0,-257.0,1124.0 
73.0,-262.0,1108.0 
78.0,-260.0,1099.0 
85.0,-265.0,1103.0 
113.0,-275.0,1113.0 
129.0,-283.0,1110.0 
122.0,-285.0,1118.0 
110.0,-280.0,1110.0 
103.0,-271.0,1096.0 
110.0,-243.0,1087.0 
102.0,-232.0,1079.0 
104.0,-220.0,1080.0 
93.0,-225.0,1084.0 
73.0,-233.0,1093.0 
71.0,-235.0,1088.0 
76.0,-237.0,1100.0 
85.0,-245.0,1092.0 
72.0,-236.0,1102.0 
57.0,-254.0,1114.0 
66.0,-253.0,1115.0 
72.0,-286.0,1125.0 
96.0,-281.0,1119.0 
111.0,-269.0,1109.0 
109.0,-262.0,1108.0 
99.0,-234.0,1084.0 
113.0,-220.0,1075.0 
102.0,-220.0,1080.0 
94.0,-220.0,1075.0 
90.0,-269.0,1109.0 
95.0,-280.0,1131.0 
98.0,-288.0,1144.0 
106.0,-289.0,1139.0 
109.0,-271.0,1155.0 
102.0,-250.0,1129.0 
109.0,-241.0,1114.0 
102.0,-228.0,1087.0 
83.0,-194.0,1054.0 
75.0,-188.0,1059.0 
66.0,-189.0,1063.0 
57.0,-203.0,1117.0 
52.0,-227.0,1126.0 
70.0,-237.0,1127.0 
86.0,-242.0,1143.0 
86.0,-238.0,1133.0 
80.0,-235.0,1120.0 
79.0,-237.0,1103.0 
90.0,-226.0,1089.0 
95.0,-215.0,1081.0 
103.0,-203.0,1070.0 
93.0,-201.0,1076.0 
86.0,-191.0,1074.0 
72.0,-215.0,1104.0 
36.0,-223.0,1117.0 
22.0,-236.0,1118.0 
9.0,-244.0,1146.0 
14.0,-256.0,1133.0 
39.0,-245.0,1140.0 
49.0,-232.0,1122.0 
52.0,-222.0,1113.0 
63.0,-200.0,1112.0 
61.0,-191.0,1111.0 
59.0,-186.0,1093.0 
57.0,-187.0,1103.0 
72.0,-200.0,1095.0 
67.0,-211.0,1101.0 
69.0,-222.0,1107.0 
66.0,-224.0,1110.0 
62.0,-238.0,1113.0 
57.0,-231.0,1119.0 
55.0,-231.0,1128.0 
52.0,-221.0,1135.0 
48.0,-215.0,1126.0 
48.0,-218.0,1123.0 
51.0,-213.0,1112.0 
56.0,-199.0,1095.0 
45.0,-188.0,1099.0 
44.0,-184.0,1086.0 
32.0,-181.0,1094.0 
14.0,-203.0,1101.0 
2.0,-197.0,1109.0 
1.0,-197.0,1108.0 
4.0,-198.0,1107.0 
1.0,-194.0,1098.0 
0.0,-199.0,1094.0 
0.0,-196.0,1094.0 
10.0,-206.0,1110.0 
25.0,-199.0,1107.0 
32.0,-208.0,1103.0 
23.0,-206.0,1100.0 
14.0,-200.0,1105.0 
13.0,-202.0,1102.0 
9.0,-209.0,1104.0 
1.0,-223.0,1110.0 
-7.0,-221.0,1115.0 
5.0,-221.0,1126.0 
-2.0,-228.0,1127.0 
-13.0,-224.0,1123.0 
-19.0,-225.0,1109.0 
-27.0,-222.0,1117.0 
-38.0,-219.0,1116.0 
-55.0,-214.0,1115.0 
-55.0,-216.0,1110.0 
-35.0,-215.0,1115.0 
-34.0,-208.0,1103.0 
-172.0,-289.0,1058.0 
-173.0,-278.0,1062.0 
-185.0,-282.0,1057.0 
-187.0,-282.0,1051.0 
-186.0,-269.0,1054.0 
-179.0,-266.0,1057.0 
-180.0,-267.0,1058.0 
-181.0,-259.0,1059.0 
-178.0,-268.0,1052.0 
-201.0,-276.0,1061.0 
-196.0,-267.0,1069.0 
-193.0,-267.0,1066.0 
-193.0,-257.0,1060.0 
-190.0,-264.0,1060.0 
-187.0,-272.0,1060.0 
-191.0,-275.0,1052.0 
-175.0,-268.0,1053.0 
-180.0,-283.0,1059.0 
-187.0,-289.0,1061.0 
-189.0,-284.0,1068.0 
-191.0,-279.0,1080.0 
-192.0,-273.0,1074.0 
-186.0,-270.0,1074.0 
-189.0,-268.0,1072.0 
-190.0,-284.0,1061.0 
-202.0,-293.0,1056.0 
-185.0,-278.0,1069.0 
-180.0,-272.0,1060.0 
-185.0,-262.0,1061.0 
-168.0,-265.0,1058.0 
-173.0,-259.0,1056.0 
-175.0,-261.0,1060.0 
-173.0,-261.0,1056.0 
-175.0,-268.0,1056.0 
-181.0,-278.0,1064.0 
-179.0,-286.0,1070.0 
-183.0,-282.0,1075.0 
-189.0,-289.0,1076.0 
-182.0,-292.0,1073.0 
-181.0,-289.0,1078.0 
-197.0,-278.0,1067.0 
-196.0,-266.0,1062.0 
-193.0,-265.0,1066.0 
-192.0,-266.0,1065.0 
-186.0,-258.0,1062.0 
-181.0,-265.0,1061.0 
-182.0,-264.0,1065.0 
-181.0,-272.0,1069.0 
-180.0,-278.0,1052.0 
-180.0,-277.0,1069.0 
-189.0,-284.0,1066.0 
-190.0,-286.0,1069.0 
-179.0,-275.0,1075.0 
-176.0,-271.0,1064.0 
-175.0,-272.0,1058.0 
-167.0,-267.0,1058.0 
-170.0,-261.0,1068.0 
-173.0,-265.0,1065.0 
-169.0,-268.0,1064.0 
-176.0,-285.0,1060.0 
-169.0,-278.0,1065.0 
-169.0,-274.0,1066.0 
-173.0,-273.0,1062.0 
-178.0,-271.0,1068.0 
-177.0,-269.0,1060.0 
-179.0,-273.0,1066.0 
-184.0,-273.0,1069.0 
-185.0,-277.0,1073.0 
-181.0,-277.0,1071.0 
-175.0,-284.0,1076.0 
-168.0,-291.0,1078.0 
-171.0,-294.0,1069.0 
-180.0,-279.0,1067.0 
-183.0,-283.0,1069.0 
-193.0,-292.0,1054.0 
-176.0,-266.0,1054.0 
-168.0,-267.0,1066.0 
-160.0,-263.0,1062.0 
-170.0,-258.0,1066.0 
-147.0,-259.0,1070.0 
-149.0,-265.0,1076.0 
-151.0,-268.0,1072.0 
-163.0,-263.0,1067.0 
-176.0,-268.0,1065.0 
-180.0,-270.0,1070.0 
-177.0,-263.0,1087.0 
-170.0,-263.0,1071.0 
-157.0,-268.0,1085.0 
-150.0,-270.0,1068.0 
-152.0,-279.0,1073.0 
-146.0,-281.0,1068.0 
-132.0,-266.0,1076.0 
-124.0,-272.0,1084.0 
-135.0,-251.0,1088.0 
-137.0,-267.0,1087.0 
-150.0,-268.0,1086.0 
-142.0,-259.0,1072.0 
-142.0,-267.0,1070.0 
-138.0,-261.0,1059.0 
-144.0,-267.0,1067.0 
-143.0,-261.0,1073.0 
-134.0,-264.0,1084.0 
-133.0,-265.0,1084.0 
-128.0,-257.0,1092.0 
-130.0,-255.0,1091.0 
-128.0,-268.0,1097.0 
-128.0,-278.0,1085.0 
-130.0,-277.0,1084.0 
-121.0,-268.0,1071.0 
-132.0,-264.0,1065.0 
-132.0,-254.0,1077.0 
-126.0,-253.0,1076.0 
-132.0,-256.0,1077.0 
-118.0,-256.0,1072.0 
-120.0,-254.0,1073.0 
-118.0,-256.0,1082.0 
-115.0,-260.0,1086.0 
-119.0,-257.0,1091.0 
-118.0,-256.0,1092.0 
-117.0,-255.0,1090.0 
-119.0,-256.0,1092.0 
-108.0,-261.0,1075.0 
-104.0,-268.0,1070.0 
-102.0,-272.0,1081.0 
-101.0,-274.0,1084.0 
-95.0,-260.0,1091.0 
-109.0,-263.0,1096.0 
-109.0,-259.0,1089.0 
-113.0,-259.0,1098.0 
-109.0,-249.0,1091.0 
-104.0,-249.0,1082.0 
-112.0,-253.0,1085.0 
-123.0,-242.0,1065.0 
-101.0,-251.0,1075.0 
-102.0,-254.0,1074.0 
-85.0,-264.0,1087.0 
-78.0,-265.0,1094.0 
-77.0,-268.0,1089.0 
-87.0,-266.0,1093.0 
-94.0,-266.0,1086.0 
-109.0,-263.0,1086.0 
-108.0,-258.0,1089.0 
-106.0,-256.0,1093.0 
-107.0,-254.0,1088.0 
-112.0,-261.0,1091.0 
-102.0,-265.0,1094.0 
-101.0,-266.0,1087.0 
-95.0,-266.0,1089.0 
-100.0,-268.0,1083.0 
-94.0,-260.0,1089.0 
-96.0,-256.0,1081.0 
-95.0,-258.0,1083.0 
-102.0,-260.0,1089.0 
-98.0,-257.0,1080.0 
-88.0,-256.0,1086.0 
-95.0,-256.0,1088.0 
-96.0,-248.0,1088.0 
-104.0,-250.0,1078.0 
-101.0,-250.0,1085.0 
-102.0,-259.0,1091.0 
-80.0,-272.0,1095.0 
-90.0,-271.0,1096.0 
-85.0,-266.0,1085.0 
-86.0,-268.0,1096.0 
-85.0,-263.0,1092.0 
-86.0,-262.0,1091.0 
-88.0,-263.0,1092.0 
-88.0,-261.0,1097.0 
-92.0,-264.0,1082.0 
-94.0,-267.0,1088.0 
-96.0,-271.0,1094.0 
-96.0,-271.0,1093.0 
-95.0,-255.0,1088.0 
-97.0,-246.0,1080.0 
-96.0,-244.0,1083.0 
-97.0,-245.0,1080.0 
-92.0,-250.0,1080.0 
-92.0,-254.0,1084.0 
-100.0,-257.0,1079.0 
-97.0,-277.0,1099.0 
-94.0,-272.0,1097.0 
-86.0,-270.0,1096.0 
-92.0,-275.0,1092.0 
-96.0,-269.0,1090.0 
-90.0,-259.0,1084.0 
-95.0,-255.0,1081.0 
-100.0,-251.0,1082.0 
-96.0,-254.0,1083.0 
-98.0,-258.0,1085.0 
-96.0,-263.0,1092.0 
-90.0,-260.0,1084.0 
-89.0,-261.0,1089.0 
-93.0,-264.0,1090.0 
-100.0,-262.0,1084.0 
-101.0,-253.0,1088.0 
-94.0,-256.0,1090.0 
-87.0,-258.0,1089.0 
-88.0,-257.0,1088.0 
-86.0,-258.0,1085.0 
-89.0,-261.0,1080.0 
44.0,-611.0,926.0 
48.0,-606.0,921.0 
37.0,-604.0,919.0 
32.0,-598.0,927.0 
27.0,-589.0,911.0 
22.0,-597.0,926.0 
22.0,-600.0,930.0 
39.0,-605.0,930.0 
44.0,-610.0,929.0 
45.0,-611.0,928.0 
47.0,-612.0,923.0 
51.0,-619.0,930.0 
53.0,-614.0,936.0 
48.0,-607.0,934.0 
44.0,-607.0,929.0 
35.0,-598.0,934.0 
37.0,-597.0,926.0 
43.0,-595.0,929.0 
40.0,-595.0,942.0 
53.0,-597.0,933.0 
64.0,-601.0,934.0 
64.0,-602.0,931.0 
62.0,-600.0,930.0 
44.0,-605.0,928.0 
40.0,-600.0,935.0 
42.0,-602.0,932.0 
47.0,-595.0,928.0 
51.0,-596.0,932.0 
45.0,-600.0,927.0 
44.0,-600.0,935.0 
47.0,-602.0,924.0 
48.0,-598.0,926.0 
48.0,-591.0,926.0 
51.0,-593.0,923.0 
49.0,-609.0,933.0 
39.0,-610.0,937.0 
36.0,-613.0,939.0 
32.0,-615.0,932.0 
59.0,-605.0,933.0 
58.0,-597.0,929.0 
57.0,-596.0,929.0 
57.0,-595.0,919.0 
51.0,-599.0,926.0 
57.0,-596.0,924.0 
54.0,-596.0,923.0 
48.0,-598.0,938.0 
32.0,-600.0,932.0 
37.0,-593.0,927.0 
39.0,-590.0,928.0 
40.0,-596.0,933.0 
48.0,-595.0,927.0 
59.0,-604.0,930.0 
57.0,-610.0,936.0 
60.0,-606.0,938.0 
60.0,-611.0,935.0 
52.0,-611.0,928.0 
54.0,-607.0,929.0 
51.0,-593.0,936.0 
65.0,-611.0,933.0 
60.0,-611.0,930.0 
65.0,-614.0,947.0 
76.0,-589.0,930.0 
54.0,-604.0,935.0 
56.0,-598.0,936.0 
59.0,-597.0,940.0 
61.0,-589.0,932.0 
48.0,-577.0,926.0 
47.0,-577.0,917.0 
55.0,-568.0,919.0 
49.0,-596.0,923.0 
65.0,-609.0,935.0 
69.0,-604.0,938.0 
78.0,-614.0,926.0 
61.0,-615.0,953.0 
66.0,-616.0,942.0 
67.0,-604.0,942.0 
67.0,-605.0,932.0 
61.0,-598.0,928.0 
49.0,-597.0,925.0 
49.0,-590.0,926.0 
48.0,-590.0,929.0 
55.0,-592.0,935.0 
62.0,-591.0,932.0 
65.0,-586.0,934.0 
63.0,-583.0,927.0 
60.0,-589.0,927.0 
58.0,-590.0,926.0 
66.0,-595.0,927.0 
65.0,-592.0,929.0 
60.0,-599.0,932.0 
63.0,-607.0,937.0 
67.0,-609.0,937.0 
67.0,-609.0,937.0 
67.0,-609.0,942.0 
66.0,-605.0,936.0 
66.0,-595.0,938.0 
67.0,-594.0,930.0 
70.0,-599.0,933.0 
66.0,-601.0,942.0 
61.0,-596.0,934.0 
59.0,-594.0,933.0 
60.0,-589.0,936.0 
61.0,-587.0,935.0 
63.0,-586.0,933.0 
62.0,-582.0,932.0 
62.0,-590.0,929.0 
64.0,-590.0,934.0 
67.0,-598.0,935.0 
57.0,-601.0,937.0 
63.0,-597.0,929.0 
58.0,-601.0,936.0 
66.0,-601.0,930.0 
69.0,-595.0,929.0 
65.0,-597.0,932.0 
63.0,-599.0,937.0 
60.0,-594.0,940.0 
67.0,-604.0,944.0 
72.0,-597.0,937.0 
70.0,-588.0,941.0 
79.0,-586.0,932.0 
77.0,-587.0,930.0 
73.0,-592.0,928.0 
71.0,-589.0,929.0 
65.0,-586.0,930.0 
62.0,-583.0,930.0 
59.0,-585.0,933.0 
55.0,-589.0,936.0 
58.0,-590.0,930.0 
54.0,-591.0,940.0 
56.0,-589.0,937.0 
48.0,-598.0,932.0 
59.0,-606.0,942.0 
66.0,-608.0,944.0 
71.0,-610.0,942.0 
72.0,-608.0,935.0 
73.0,-604.0,938.0 
78.0,-596.0,935.0 
77.0,-591.0,933.0 
74.0,-579.0,937.0 
65.0,-579.0,927.0 
65.0,-580.0,924.0 
56.0,-587.0,926.0 
56.0,-577.0,945.0 
65.0,-594.0,939.0 
70.0,-591.0,944.0 
69.0,-603.0,943.0 
59.0,-604.0,937.0 
54.0,-599.0,939.0 
55.0,-598.0,938.0 
60.0,-588.0,934.0 
59.0,-583.0,926.0 
65.0,-574.0,926.0 
70.0,-581.0,931.0 
70.0,-587.0,924.0 
64.0,-601.0,941.0 
73.0,-602.0,941.0 
79.0,-603.0,941.0 
68.0,-608.0,945.0 
61.0,-601.0,945.0 
64.0,-598.0,937.0 
65.0,-595.0,935.0 
67.0,-590.0,935.0 
69.0,-587.0,928.0 
69.0,-586.0,933.0 
64.0,-584.0,929.0 
63.0,-589.0,935.0 
60.0,-590.0,934.0 
58.0,-591.0,936.0 
66.0,-587.0,941.0 
61.0,-590.0,934.0 
65.0,-592.0,942.0 
62.0,-595.0,938.0 
65.0,-594.0,935.0 
64.0,-601.0,939.0 
62.0,-601.0,939.0 
58.0,-600.0,940.0 
59.0,-597.0,937.0 
65.0,-592.0,940.0 
68.0,-594.0,936.0 
65.0,-593.0,928.0 
62.0,-597.0,936.0 
62.0,-596.0,940.0 
61.0,-595.0,940.0 
70.0,-597.0,944.0 
66.0,-600.0,945.0 
59.0,-594.0,940.0 
64.0,-591.0,930.0 
62.0,-585.0,934.0 
63.0,-586.0,932.0 
61.0,-584.0,928.0 
62.0,-581.0,934.0 
67.0,-587.0,930.0 
67.0,-588.0,942.0 
62.0,-593.0,935.0 
64.0,-599.0,938.0 
65.0,-601.0,934.0 
63.0,-602.0,940.0 
65.0,-596.0,938.0 
64.0,-595.0,935.0 
65.0,-595.0,940.0 
-33.0,-221.0,1102.0 
-36.0,-207.0,1090.0 
-41.0,-199.0,1098.0 
-43.0,-201.0,1093.0 
-37.0,-196.0,1097.0 
-37.0,-200.0,1104.0 
-43.0,-203.0,1102.0 
-47.0,-209.0,1108.0 
-51.0,-214.0,1110.0 
-49.0,-215.0,1107.0 
-45.0,-221.0,1103.0 
-44.0,-226.0,1116.0 
-65.0,-226.0,1106.0 
-46.0,-209.0,1109.0 
-44.0,-202.0,1099.0 
-43.0,-209.0,1106.0 
-40.0,-211.0,1101.0 
-47.0,-217.0,1107.0 
-44.0,-218.0,1105.0 
-35.0,-219.0,1108.0 
-37.0,-227.0,1109.0 
-34.0,-217.0,1104.0 
-37.0,-214.0,1095.0 
-37.0,-212.0,1103.0 
-44.0,-215.0,1098.0 
-48.0,-204.0,1098.0 
-44.0,-196.0,1092.0 
-47.0,-200.0,1087.0 
-42.0,-203.0,1089.0 
-34.0,-206.0,1081.0 
-40.0,-202.0,1084.0 
-50.0,-200.0,1073.0 
-40.0,-202.0,1086.0 
-24.0,-207.0,1075.0 
-33.0,-199.0,1069.0 
-28.0,-200.0,1090.0 
-17.0,-223.0,1090.0 
-32.0,-229.0,1091.0 
-38.0,-228.0,1096.0 
-41.0,-228.0,1092.0 
-62.0,-200.0,1065.0 
-76.0,-197.0,1067.0 
-58.0,-194.0,1058.0 
-39.0,-190.0,1055.0 
-25.0,-218.0,1065.0 
-18.0,-239.0,1073.0 
-24.0,-254.0,1084.0 
-24.0,-269.0,1088.0 
-36.0,-275.0,1077.0 
-50.0,-274.0,1081.0 
-48.0,-269.0,1085.0 
-40.0,-264.0,1076.0 
-17.0,-242.0,1063.0 
-24.0,-238.0,1059.0 
-21.0,-241.0,1065.0 
-28.0,-279.0,1067.0 
-5.0,-290.0,1076.0 
-6.0,-311.0,1073.0 
6.0,-321.0,1090.0 
5.0,-326.0,1083.0 
-4.0,-322.0,1064.0 
-2.0,-299.0,1058.0 
-7.0,-295.0,1058.0 
2.0,-293.0,1056.0 
45.0,-308.0,1066.0 
69.0,-328.0,1084.0 
73.0,-338.0,1082.0 
36.0,-386.0,1113.0 
28.0,-396.0,1124.0 
14.0,-381.0,1125.0 
3.0,-363.0,1121.0 
-12.0,-317.0,1090.0 
-28.0,-297.0,1072.0 
-37.0,-294.0,1050.0 
-55.0,-289.0,1077.0 
-33.0,-309.0,1084.0 
-11.0,-333.0,1111.0 
22.0,-342.0,1119.0 
62.0,-355.0,1136.0 
8.0,-360.0,1191.0 
-6.0,-365.0,1182.0 
-2.0,-341.0,1153.0 
2.0,-314.0,1141.0 
-26.0,-343.0,1126.0 
-27.0,-327.0,1110.0 
-33.0,-338.0,1117.0 
-21.0,-318.0,1141.0 
-7.0,-323.0,1133.0 
0.0,-313.0,1128.0 
0.0,-306.0,1107.0 
-2.0,-245.0,1095.0 
23.0,-240.0,1099.0 
39.0,-223.0,1099.0 
64.0,-220.0,1102.0 
39.0,-223.0,1106.0 
30.0,-206.0,1096.0 
30.0,-204.0,1113.0 
15.0,-235.0,1096.0 
27.0,-229.0,1090.0 
42.0,-230.0,1103.0 
64.0,-243.0,1124.0 
78.0,-234.0,1129.0 
56.0,-233.0,1131.0 
24.0,-236.0,1136.0 
18.0,-220.0,1123.0 
19.0,-200.0,1115.0 
23.0,-167.0,1098.0 
36.0,-157.0,1086.0 
56.0,-142.0,1091.0 
60.0,-134.0,1110.0 
79.0,-146.0,1106.0 
87.0,-164.0,1121.0 
94.0,-177.0,1123.0 
91.0,-199.0,1147.0 
94.0,-201.0,1146.0 
94.0,-182.0,1138.0 
88.0,-169.0,1121.0 
79.0,-160.0,1124.0 
71.0,-154.0,1121.0 
72.0,-176.0,1136.0 
85.0,-175.0,1154.0 
117.0,-196.0,1145.0 
109.0,-201.0,1153.0 
123.0,-193.0,1143.0 
116.0,-187.0,1124.0 
72.0,-180.0,1132.0 
75.0,-168.0,1129.0 
91.0,-176.0,1146.0 
97.0,-169.0,1159.0 
137.0,-167.0,1139.0 
120.0,-178.0,1159.0 
108.0,-175.0,1128.0 
115.0,-151.0,1131.0 
75.0,-134.0,1146.0 
59.0,-136.0,1155.0 
39.0,-123.0,1165.0 
62.0,-138.0,1174.0 
73.0,-128.0,1135.0 
97.0,-124.0,1094.0 
98.0,-120.0,1121.0 
93.0,-122.0,1124.0 
84.0,-115.0,1124.0 
81.0,-97.0,1125.0 
72.0,-77.0,1119.0 
69.0,-48.0,1117.0 
49.0,-43.0,1107.0 
47.0,-55.0,1082.0 
48.0,-48.0,1079.0 
72.0,-69.0,1096.0 
103.0,-66.0,1083.0 
117.0,-65.0,1071.0 
104.0,-59.0,1075.0 
55.0,-91.0,1115.0 
53.0,-101.0,1154.0 
72.0,-104.0,1122.0 
73.0,-103.0,1126.0 
52.0,-88.0,1123.0 
76.0,-70.0,1079.0 
90.0,-62.0,1095.0 
93.0,-59.0,1087.0 
97.0,-61.0,1088.0 
90.0,-71.0,1098.0 
79.0,-87.0,1114.0 
80.0,-87.0,1108.0 
92.0,-90.0,1117.0 
94.0,-84.0,1119.0 
107.0,-98.0,1113.0 
115.0,-112.0,1110.0 
138.0,-123.0,1114.0 
153.0,-119.0,1096.0 
140.0,-112.0,1103.0 
131.0,-83.0,1090.0 
91.0,-77.0,1091.0 
110.0,-79.0,1090.0 
137.0,-94.0,1098.0 
159.0,-136.0,1107.0 
205.0,-153.0,1120.0 
214.0,-174.0,1131.0 
238.0,-183.0,1123.0 
239.0,-178.0,1124.0 
200.0,-171.0,1112.0 
209.0,-168.0,1101.0 
195.0,-177.0,1101.0 
214.0,-188.0,1120.0 
267.0,-191.0,1117.0 
274.0,-211.0,1113.0 
271.0,-224.0,1134.0 
265.0,-210.0,1128.0 
263.0,-198.0,1112.0 
263.0,-201.0,1108.0 
261.0,-193.0,1092.0 
242.0,-192.0,1096.0 
223.0,-192.0,1097.0 
226.0,-192.0,1098.0 
205.0,-194.0,1124.0 
195.0,-216.0,1129.0 
209.0,-208.0,1128.0 
214.0,-204.0,1115.0 
213.0,-186.0,1116.0 
216.0,-192.0,1111.0 
5.0,-54.0,1135.0 
-10.0,-55.0,1127.0 
-6.0,-59.0,1126.0 
-9.0,-58.0,1132.0 
-21.0,-37.0,1133.0 
-34.0,-26.0,1127.0 
-40.0,-13.0,1133.0 
-37.0,-19.0,1131.0 
-14.0,-48.0,1143.0 
-5.0,-60.0,1142.0 
5.0,-70.0,1156.0 
22.0,-61.0,1142.0 
16.0,-25.0,1146.0 
0.0,-23.0,1143.0 
-27.0,-19.0,1132.0 
-41.0,-12.0,1125.0 
-48.0,20.0,1121.0 
-31.0,8.0,1110.0 
-35.0,-1.0,1107.0 
-33.0,-17.0,1123.0 
-15.0,-47.0,1134.0 
5.0,-42.0,1135.0 
9.0,-32.0,1134.0 
6.0,-3.0,1134.0 
-24.0,-9.0,1127.0 
-44.0,-5.0,1123.0 
-47.0,3.0,1116.0 
-49.0,-3.0,1127.0 
-31.0,-16.0,1133.0 
-8.0,-36.0,1145.0 
0.0,-46.0,1156.0 
6.0,-24.0,1145.0 
-5.0,-26.0,1150.0 
-29.0,-27.0,1160.0 
-43.0,-30.0,1158.0 
-45.0,-15.0,1135.0 
-60.0,-15.0,1148.0 
-74.0,-22.0,1143.0 
-82.0,-33.0,1151.0 
-50.0,-45.0,1151.0 
-26.0,-49.0,1150.0 
-18.0,-35.0,1145.0 
-31.0,-29.0,1135.0 
-54.0,-8.0,1136.0 
-72.0,-5.0,1125.0 
-84.0,-3.0,1104.0 
-96.0,-4.0,1088.0 
-101.0,-5.0,1077.0 
-85.0,-5.0,1061.0 
-66.0,12.0,1034.0 
-55.0,42.0,1006.0 
-79.0,30.0,1007.0 
-88.0,53.0,994.0 
-93.0,37.0,1004.0 
-105.0,44.0,1023.0 
-111.0,41.0,1020.0 
-94.0,62.0,1012.0 
-85.0,61.0,992.0 
-88.0,46.0,1019.0 
-78.0,34.0,1032.0 
-77.0,29.0,1042.0 
-85.0,39.0,1046.0 
-88.0,4.0,1070.0 
-87.0,-2.0,1081.0 
-76.0,-3.0,1081.0 
-53.0,0.0,1087.0 
-27.0,8.0,1088.0 
-26.0,12.0,1095.0 
-25.0,12.0,1109.0 
-26.0,0.0,1109.0 
-15.0,-6.0,1116.0 
0.0,-11.0,1112.0 
0.0,-11.0,1117.0 
-11.0,-18.0,1126.0 
15.0,5.0,1130.0 
12.0,9.0,1127.0 
17.0,-11.0,1148.0 
17.0,-32.0,1153.0 
25.0,-28.0,1152.0 
19.0,-11.0,1140.0 
7.0,5.0,1134.0 
0.0,1.0,1153.0 
-41.0,-1.0,1167.0 
-39.0,-10.0,1172.0 
-40.0,-14.0,1177.0 
-36.0,-49.0,1181.0 
-34.0,-62.0,1186.0 
-19.0,-85.0,1191.0 
1.0,-100.0,1194.0 
16.0,-122.0,1199.0 
20.0,-113.0,1190.0 
27.0,-101.0,1185.0 
26.0,-88.0,1167.0 
27.0,-68.0,1145.0 
7.0,-55.0,1124.0 
0.0,-54.0,1121.0 
-10.0,-50.0,1125.0 
-7.0,-85.0,1139.0 
-3.0,-88.0,1139.0 
17.0,-76.0,1135.0 
22.0,-81.0,1116.0 
21.0,-71.0,1111.0 
11.0,-66.0,1103.0 
-4.0,-65.0,1108.0 
-17.0,-66.0,1111.0 
-19.0,-103.0,1109.0 
-42.0,-112.0,1160.0 
-1.0,-101.0,1133.0 
23.0,-93.0,1123.0 
36.0,-110.0,1131.0 
19.0,-89.0,1148.0 
22.0,-111.0,1144.0 
28.0,-104.0,1132.0 
-14.0,-100.0,1146.0 
-18.0,-107.0,1151.0 
-12.0,-97.0,1142.0 
0.0,-110.0,1143.0 
40.0,-120.0,1126.0 
48.0,-123.0,1115.0 
47.0,-129.0,1107.0 
18.0,-133.0,1090.0 
9.0,-141.0,1099.0 
0.0,-144.0,1118.0 
6.0,-151.0,1133.0 
-5.0,-154.0,1176.0 
8.0,-156.0,1168.0 
9.0,-161.0,1163.0 
-6.0,-175.0,1167.0 
-3.0,-168.0,1134.0 
12.0,-156.0,1115.0 
11.0,-160.0,1115.0 
8.0,-153.0,1073.0 
-10.0,-132.0,1054.0 
-22.0,-51.0,1101.0 
-43.0,-94.0,1154.0 
-29.0,-133.0,1177.0 
31.0,-125.0,1138.0 
44.0,-134.0,1130.0 
50.0,-153.0,1114.0 
56.0,-161.0,1105.0 
53.0,-173.0,1105.0 
32.0,-148.0,1096.0 
18.0,-145.0,1115.0 
2.0,-137.0,1120.0 
-31.0,-144.0,1121.0 
-47.0,-160.0,1124.0 
-36.0,-164.0,1132.0 
-15.0,-210.0,1142.0 
-9.0,-219.0,1135.0 
6.0,-223.0,1166.0 
-3.0,-268.0,1147.0 
15.0,-254.0,1161.0 
5.0,-230.0,1165.0 
5.0,-230.0,1150.0 
1.0,-233.0,1141.0 
26.0,-109.0,1092.0 
-8.0,-166.0,1147.0 
-29.0,-251.0,1201.0 
0.0,-278.0,1159.0 
33.0,-219.0,1164.0 
26.0,-217.0,1145.0 
37.0,-210.0,1132.0 
39.0,-201.0,1111.0 
26.0,-174.0,1107.0 
20.0,-170.0,1107.0 
20.0,-169.0,1113.0 
20.0,-163.0,1117.0 
7.0,-172.0,1113.0 
12.0,-180.0,1115.0 
1.0,-192.0,1117.0 
13.0,-195.0,1124.0 
39.0,-202.0,1113.0 
46.0,-185.0,1106.0 
50.0,-180.0,1109.0 
35.0,-180.0,1125.0 
-2.0,-183.0,1125.0 
-11.0,-182.0,1130.0 
-13.0,-185.0,1126.0 
-11.0,-183.0,1135.0 
-6.0,-197.0,1124.0 
15.0,-188.0,1128.0 
26.0,-198.0,1118.0 
31.0,-189.0,1111.0 
6.0,-179.0,1109.0 
1.0,-166.0,1113.0 
-3.0,-174.0,1107.0 
3.0,-187.0,1126.0 
7.0,-192.0,1118.0 
18.0,-193.0,1130.0 
30.0,-221.0,1131.0 
21.0,-162.0,1122.0 
16.0,-174.0,1115.0 
15.0,-171.0,1098.0 
12.0,-204.0,1078.0 
15.0,-201.0,1102.0 
-9.0,-207.0,1106.0 
3.0,-192.0,1115.0 
11.0,-177.0,1129.0 
-8.0,-170.0,1137.0 
6.0,-147.0,1115.0 
1.0,-183.0,1131.0 
-4.0,-181.0,1126.0 
7.0,-178.0,1130.0 
12.0,-181.0,1112.0 
22.0,-173.0,1113.0 
17.0,-136.0,1103.0 
27.0,-144.0,1100.0 
40.0,-157.0,1099.0 
32.0,-157.0,1110.0 
26.0,-169.0,1115.0 
36.0,-162.0,1111.0 
44.0,-171.0,1112.0 
32.0,-175.0,1124.0 
13.0,-166.0,1125.0 
10.0,-160.0,1125.0 
18.0,-160.0,1122.0 
27.0,-172.0,1131.0 
39.0,-163.0,1125.0 
44.0,-160.0,1128.0 
45.0,-166.0,1122.0 
46.0,-154.0,1110.0 
64.0,-160.0,1118.0 
54.0,-158.0,1118.0 
43.0,-166.0,1125.0 
43.0,-172.0,1129.0 
50.0,-162.0,1150.0 
54.0,-172.0,1121.0 
51.0,-155.0,1127.0 
45.0,-150.0,1106.0 
52.0,-156.0,1104.0 
48.0,-144.0,1085.0 
55.0,-163.0,1105.0 
49.0,-137.0,1112.0 
57.0,-169.0,1122.0 
61.0,-180.0,1139.0 
69.0,-185.0,1152.0 
76.0,-186.0,1138.0 
57.0,-182.0,1139.0 
48.0,-168.0,1125.0 
46.0,-159.0,1104.0 
51.0,-138.0,1109.0 
54.0,-136.0,1105.0 
52.0,-142.0,1108.0 
41.0,-143.0,1120.0 
31.0,-144.0,1133.0 
37.0,-156.0,1135.0 
31.0,-152.0,1141.0 
24.0,-143.0,1121.0 
19.0,-130.0,1109.0 
19.0,-127.0,1107.0 
32.0,-125.0,1102.0 
36.0,-143.0,1108.0 
42.0,-130.0,1114.0 
53.0,-144.0,1120.0 
55.0,-154.0,1136.0 
47.0,-171.0,1147.0 
41.0,-170.0,1148.0 
30.0,-150.0,1136.0 
48.0,-147.0,1129.0 
44.0,-139.0,1120.0 
52.0,-132.0,1110.0 
55.0,-139.0,1108.0 
63.0,-125.0,1115.0 
57.0,-144.0,1119.0 
39.0,-138.0,1123.0 
48.0,-145.0,1131.0 
46.0,-154.0,1135.0 
60.0,-148.0,1132.0 
56.0,-143.0,1126.0 
42.0,-140.0,1127.0 
44.0,-135.0,1114.0 
48.0,-144.0,1111.0 
40.0,-147.0,1124.0 
51.0,-150.0,1125.0 
43.0,-153.0,1140.0 
45.0,-146.0,1145.0 
52.0,-137.0,1139.0 
55.0,-128.0,1130.0 
53.0,-160.0,1129.0 
54.0,-154.0,1139.0 
61.0,-159.0,1139.0 
65.0,-152.0,1138.0 
72.0,-141.0,1121.0 
79.0,-125.0,1118.0 
64.0,-124.0,1117.0 
49.0,-121.0,1131.0 
53.0,-113.0,1112.0 
67.0,-104.0,1115.0 
69.0,-96.0,1109.0 
71.0,-98.0,1113.0 
51.0,-120.0,1126.0 
45.0,-123.0,1128.0 
47.0,-116.0,1126.0 
44.0,-111.0,1117.0 
27.0,-117.0,1122.0 
25.0,-120.0,1130.0 
40.0,-122.0,1127.0 
47.0,-122.0,1127.0 
45.0,-140.0,1143.0 
49.0,-136.0,1140.0 
55.0,-127.0,1138.0 
53.0,-125.0,1133.0 
50.0,-118.0,1124.0 
50.0,-118.0,1120.0 
54.0,-122.0,1114.0 
60.0,-117.0,1114.0 
57.0,-112.0,1116.0 
46.0,-127.0,1127.0 
50.0,-122.0,1132.0 
60.0,-137.0,1136.0 
56.0,-140.0,1137.0 
55.0,-142.0,1147.0 
56.0,-131.0,1131.0 
66.0,-137.0,1130.0 
63.0,-127.0,1130.0 
62.0,-119.0,1118.0 
58.0,-128.0,1127.0 
36.0,-118.0,1130.0 
59.0,-125.0,1129.0 
63.0,-135.0,1138.0 
55.0,-128.0,1135.0 
58.0,-112.0,1110.0 
55.0,-105.0,1115.0 
54.0,-105.0,1102.0 
57.0,-114.0,1117.0 
53.0,-116.0,1114.0 
72.0,-120.0,1119.0 
90.0,-131.0,1119.0 
62.0,-126.0,1148.0 
45.0,-132.0,1130.0 
45.0,-135.0,1136.0 
38.0,-136.0,1139.0 
37.0,-137.0,1131.0 
45.0,-125.0,1139.0 
50.0,-112.0,1126.0 
55.0,-106.0,1119.0 
48.0,-105.0,1118.0 
57.0,-104.0,1112.0 
61.0,-108.0,1109.0 
60.0,-119.0,1104.0 
62.0,-115.0,1116.0 
55.0,-134.0,1115.0 
49.0,-126.0,1128.0 
51.0,-142.0,1122.0 
42.0,-144.0,1139.0 
54.0,-141.0,1137.0 
61.0,-136.0,1128.0 
63.0,-143.0,1128.0 
69.0,-138.0,1108.0 
75.0,-145.0,1109.0 
70.0,-148.0,1124.0 
59.0,-147.0,1141.0 
62.0,-138.0,1141.0 
61.0,-130.0,1143.0 
62.0,-133.0,1148.0 
56.0,-137.0,1129.0 
72.0,-135.0,1128.0 
79.0,-147.0,1124.0 
89.0,-155.0,1126.0 
90.0,-146.0,1117.0 
75.0,-142.0,1115.0 
68.0,-134.0,1120.0 
61.0,-135.0,1117.0 
67.0,-126.0,1110.0 
68.0,-141.0,1110.0 
66.0,-145.0,1115.0 
78.0,-146.0,1119.0 
81.0,-154.0,1122.0 
69.0,-158.0,1129.0 
64.0,-166.0,1125.0 
54.0,-159.0,1136.0 
61.0,-158.0,1123.0 
51.0,-154.0,1145.0 
55.0,-156.0,1137.0 
51.0,-149.0,1127.0 
51.0,-146.0,1116.0 
50.0,-137.0,1105.0 
42.0,-143.0,1100.0 
35.0,-139.0,1115.0 
22.0,-148.0,1123.0 
43.0,-142.0,1124.0 
54.0,-140.0,1123.0 
57.0,-136.0,1127.0 
54.0,-144.0,1129.0 
53.0,-145.0,1126.0 
57.0,-145.0,1127.0 
49.0,-145.0,1121.0 
52.0,-141.0,1117.0 
63.0,-140.0,1110.0 
67.0,-146.0,1118.0 
64.0,-147.0,1129.0 
70.0,-150.0,1129.0 
57.0,-150.0,1148.0 
67.0,-157.0,1133.0 
57.0,-160.0,1144.0 
60.0,-161.0,1137.0 
61.0,-160.0,1131.0 
54.0,-153.0,1127.0 
64.0,-148.0,1123.0 
80.0,-140.0,1112.0 
-51.0,238.0,1102.0 
-48.0,244.0,1106.0 
-49.0,238.0,1108.0 
-47.0,239.0,1111.0 
-47.0,233.0,1107.0 
-50.0,236.0,1110.0 
-50.0,232.0,1107.0 
-44.0,241.0,1107.0 
-42.0,230.0,1108.0 
-52.0,234.0,1092.0 
-51.0,241.0,1106.0 
-50.0,239.0,1098.0 
-50.0,233.0,1098.0 
-45.0,235.0,1109.0 
-48.0,234.0,1110.0 
-44.0,229.0,1106.0 
-41.0,232.0,1106.0 
-38.0,230.0,1112.0 
-25.0,224.0,1113.0 
-45.0,230.0,1104.0 
-57.0,236.0,1102.0 
-60.0,246.0,1099.0 
-71.0,252.0,1103.0 
-61.0,243.0,1112.0 
-54.0,230.0,1108.0 
-65.0,204.0,1114.0 
-63.0,238.0,1103.0 
-71.0,218.0,1120.0 
-65.0,229.0,1108.0 
-64.0,226.0,1107.0 
-50.0,232.0,1113.0 
-36.0,234.0,1103.0 
-47.0,234.0,1109.0 
-39.0,233.0,1109.0 
-35.0,236.0,1108.0 
-36.0,226.0,1106.0 
-40.0,231.0,1106.0 
-52.0,237.0,1099.0 
-56.0,239.0,1104.0 
-48.0,240.0,1108.0 
-49.0,236.0,1111.0 
-62.0,234.0,1105.0 
-64.0,239.0,1106.0 
-67.0,233.0,1111.0 
-57.0,234.0,1103.0 
-51.0,232.0,1103.0 
-48.0,231.0,1103.0 
-43.0,230.0,1107.0 
-34.0,228.0,1101.0 
-35.0,231.0,1101.0 
-48.0,235.0,1097.0 
-56.0,251.0,1091.0 
-34.0,224.0,1115.0 
-34.0,246.0,1093.0 
-28.0,240.0,1118.0 
-27.0,214.0,1107.0 
-38.0,213.0,1109.0 
-45.0,226.0,1096.0 
-59.0,224.0,1102.0 
-64.0,219.0,1099.0 
-61.0,215.0,1102.0 
-51.0,215.0,1116.0 
-48.0,222.0,1106.0 
-46.0,218.0,1099.0 
-42.0,224.0,1100.0 
-49.0,223.0,1103.0 
-52.0,221.0,1101.0 
-50.0,225.0,1117.0 
-55.0,229.0,1112.0 
-60.0,227.0,1103.0 
-59.0,227.0,1113.0 
-63.0,226.0,1099.0 
-74.0,236.0,1099.0 
-71.0,242.0,1108.0 
-68.0,238.0,1108.0 
-67.0,228.0,1119.0 
-45.0,224.0,1122.0 
-42.0,225.0,1111.0 
-46.0,224.0,1109.0 
-53.0,225.0,1114.0 
-63.0,223.0,1111.0 
-63.0,227.0,1116.0 
-50.0,225.0,1118.0 
-46.0,232.0,1117.0 
-51.0,235.0,1112.0 
-53.0,232.0,1108.0 
-61.0,234.0,1109.0 
-68.0,232.0,1109.0 
-65.0,225.0,1111.0 
-70.0,218.0,1112.0 
-62.0,214.0,1118.0 
-54.0,218.0,1110.0 
-54.0,225.0,1098.0 
-57.0,222.0,1102.0 
-54.0,221.0,1109.0 
-62.0,220.0,1110.0 
-67.0,215.0,1103.0 
-57.0,211.0,1107.0 
-49.0,217.0,1100.0 
-58.0,227.0,1095.0 
-58.0,233.0,1095.0 
-55.0,238.0,1093.0 
-48.0,236.0,1090.0 
-51.0,236.0,1090.0 
-43.0,241.0,1094.0 
-35.0,238.0,1096.0 
-37.0,239.0,1088.0 
-46.0,238.0,1099.0 
-42.0,228.0,1086.0 
-52.0,223.0,1094.0 
-45.0,222.0,1108.0 
-53.0,231.0,1106.0 
-66.0,235.0,1095.0 
-71.0,234.0,1097.0 
-72.0,231.0,1097.0 
-66.0,240.0,1105.0 
-63.0,251.0,1097.0 
-48.0,268.0,1077.0 
-35.0,249.0,1081.0 
-35.0,247.0,1097.0 
-37.0,235.0,1086.0 
-42.0,240.0,1103.0 
-48.0,226.0,1081.0 
-51.0,225.0,1087.0 
-43.0,203.0,1083.0 
-45.0,213.0,1105.0 
-20.0,237.0,1129.0 
-6.0,221.0,1082.0 
-12.0,203.0,1077.0 
-12.0,215.0,1078.0 
-2.0,219.0,1084.0 
-7.0,194.0,1091.0 
-20.0,203.0,1106.0 
-29.0,171.0,1101.0 
-33.0,170.0,1116.0 
-43.0,158.0,1111.0 
-37.0,150.0,1107.0 
-49.0,154.0,1151.0 
-37.0,131.0,1122.0 
-54.0,118.0,1134.0 
-40.0,115.0,1176.0 
-21.0,111.0,1130.0 
-38.0,102.0,1140.0 
-19.0,116.0,1136.0 
-3.0,119.0,1124.0 
-10.0,92.0,1146.0 
-24.0,84.0,1153.0 
-27.0,69.0,1165.0 
-26.0,66.0,1191.0 
-36.0,100.0,1142.0 
-41.0,137.0,1142.0 
-35.0,114.0,1123.0 
-18.0,106.0,1141.0 
1.0,86.0,1144.0 
10.0,80.0,1135.0 
8.0,77.0,1142.0 
6.0,77.0,1150.0 
6.0,69.0,1148.0 
-17.0,71.0,1151.0 
-25.0,62.0,1136.0 
-20.0,62.0,1142.0 
-12.0,65.0,1147.0 
5.0,59.0,1148.0 
12.0,49.0,1146.0 
13.0,46.0,1148.0 
21.0,46.0,1150.0 
28.0,44.0,1146.0 
17.0,43.0,1143.0 
16.0,46.0,1137.0 
11.0,45.0,1146.0 
-3.0,43.0,1144.0 
4.0,43.0,1149.0 
1.0,43.0,1147.0 
9.0,48.0,1142.0 
16.0,46.0,1142.0 
17.0,54.0,1140.0 
28.0,53.0,1146.0 
11.0,44.0,1144.0 
16.0,49.0,1147.0 
4.0,48.0,1147.0 
3.0,58.0,1134.0 
11.0,60.0,1133.0 
4.0,64.0,1148.0 
7.0,59.0,1140.0 
10.0,63.0,1140.0 
12.0,60.0,1136.0 
14.0,54.0,1137.0 
7.0,58.0,1136.0 
3.0,49.0,1138.0 
6.0,55.0,1135.0 
10.0,47.0,1133.0 
12.0,49.0,1138.0 
11.0,52.0,1143.0 
7.0,54.0,1145.0 
7.0,57.0,1133.0 
8.0,62.0,1127.0 
1.0,61.0,1131.0 
10.0,66.0,1130.0 
10.0,65.0,1131.0 
11.0,69.0,1116.0 
394.0,-341.0,1024.0 
412.0,-351.0,1027.0 
420.0,-357.0,1036.0 
423.0,-359.0,1029.0 
425.0,-366.0,1038.0 
422.0,-361.0,1036.0 
420.0,-356.0,1029.0 
407.0,-354.0,1026.0 
394.0,-356.0,1029.0 
402.0,-361.0,1035.0 
401.0,-362.0,1028.0 
409.0,-358.0,1023.0 
411.0,-352.0,1021.0 
408.0,-342.0,1021.0 
398.0,-340.0,1017.0 
391.0,-338.0,1019.0 
391.0,-333.0,1020.0 
396.0,-332.0,1019.0 
397.0,-331.0,1017.0 
394.0,-327.0,1012.0 
404.0,-320.0,1009.0 
403.0,-318.0,1022.0 
392.0,-319.0,1008.0 
386.0,-319.0,1009.0 
388.0,-314.0,1010.0 
389.0,-308.0,1011.0 
392.0,-304.0,1012.0 
393.0,-306.0,1002.0 
395.0,-316.0,1009.0 
400.0,-320.0,1009.0 
404.0,-322.0,1016.0 
401.0,-327.0,1013.0 
407.0,-333.0,1021.0 
404.0,-337.0,1018.0 
409.0,-333.0,1017.0 
401.0,-334.0,1020.0 
387.0,-332.0,1021.0 
375.0,-332.0,1017.0 
369.0,-333.0,1030.0 
382.0,-328.0,1028.0 
393.0,-335.0,1028.0 
390.0,-329.0,1017.0 
400.0,-320.0,1015.0 
393.0,-309.0,1006.0 
400.0,-315.0,1007.0 
408.0,-329.0,1002.0 
411.0,-317.0,1010.0 
408.0,-333.0,1010.0 
421.0,-330.0,1014.0 
426.0,-326.0,1019.0 
418.0,-323.0,1023.0 
412.0,-324.0,1019.0 
406.0,-314.0,1013.0 
402.0,-306.0,1030.0 
401.0,-325.0,1010.0 
374.0,-323.0,1018.0 
399.0,-317.0,1009.0 
386.0,-321.0,1007.0 
383.0,-317.0,1013.0 
379.0,-315.0,1017.0 
378.0,-313.0,1014.0 
381.0,-319.0,1025.0 
373.0,-327.0,1015.0 
389.0,-326.0,1018.0 
394.0,-327.0,1023.0 
396.0,-329.0,1027.0 
386.0,-324.0,1019.0 
373.0,-324.0,1022.0 
364.0,-322.0,1022.0 
361.0,-316.0,1023.0 
349.0,-312.0,1027.0 
346.0,-310.0,1031.0 
358.0,-316.0,1033.0 
366.0,-323.0,1028.0 
381.0,-331.0,1026.0 
386.0,-327.0,1020.0 
385.0,-327.0,1018.0 
379.0,-319.0,1020.0 
373.0,-316.0,1020.0 
375.0,-308.0,1019.0 
364.0,-310.0,1017.0 
352.0,-317.0,1020.0 
353.0,-328.0,1037.0 
367.0,-330.0,1038.0 
360.0,-331.0,1054.0 
392.0,-330.0,1025.0 
365.0,-332.0,1039.0 
377.0,-329.0,1035.0 
380.0,-325.0,1025.0 
373.0,-328.0,1031.0 
358.0,-321.0,1025.0 
344.0,-327.0,1029.0 
339.0,-332.0,1040.0 
348.0,-326.0,1040.0 
351.0,-330.0,1041.0 
372.0,-332.0,1038.0 
372.0,-326.0,1038.0 
372.0,-325.0,1046.0 
366.0,-332.0,1039.0 
366.0,-336.0,1041.0 
361.0,-329.0,1042.0 
357.0,-345.0,1051.0 
360.0,-335.0,1040.0 
354.0,-333.0,1047.0 
351.0,-329.0,1044.0 
349.0,-316.0,1043.0 
358.0,-309.0,1040.0 
349.0,-311.0,1040.0 
342.0,-311.0,1043.0 
334.0,-298.0,1037.0 
334.0,-290.0,1036.0 
326.0,-282.0,1038.0 
320.0,-282.0,1030.0 
335.0,-269.0,1030.0 
320.0,-266.0,1036.0 
312.0,-273.0,1035.0 
318.0,-274.0,1037.0 
317.0,-275.0,1041.0 
316.0,-272.0,1038.0 
312.0,-279.0,1050.0 
312.0,-286.0,1054.0 
313.0,-278.0,1048.0 
308.0,-284.0,1056.0 
310.0,-282.0,1063.0 
307.0,-285.0,1055.0 
300.0,-284.0,1056.0 
297.0,-282.0,1050.0 
299.0,-285.0,1060.0 
299.0,-273.0,1059.0 
293.0,-287.0,1059.0 
288.0,-290.0,1058.0 
296.0,-289.0,1054.0 
293.0,-294.0,1064.0 
308.0,-298.0,1059.0 
308.0,-298.0,1063.0 
308.0,-297.0,1061.0 
299.0,-288.0,1065.0 
301.0,-287.0,1060.0 
304.0,-287.0,1058.0 
310.0,-289.0,1052.0 
316.0,-294.0,1065.0 
296.0,-307.0,1078.0 
310.0,-298.0,1064.0 
336.0,-278.0,1044.0 
306.0,-284.0,1057.0 
312.0,-277.0,1059.0 
311.0,-276.0,1053.0 
307.0,-275.0,1046.0 
292.0,-265.0,1045.0 
291.0,-269.0,1050.0 
296.0,-275.0,1053.0 
300.0,-279.0,1054.0 
308.0,-279.0,1056.0 
308.0,-280.0,1048.0 
307.0,-280.0,1059.0 
300.0,-282.0,1065.0 
302.0,-287.0,1063.0 
300.0,-280.0,1066.0 
298.0,-287.0,1067.0 
302.0,-279.0,1069.0 
309.0,-283.0,1062.0 
307.0,-280.0,1060.0 
298.0,-281.0,1061.0 
294.0,-282.0,1063.0 
291.0,-288.0,1055.0 
291.0,-282.0,1064.0 
286.0,-279.0,1063.0 
285.0,-275.0,1069.0 
285.0,-275.0,1064.0 
285.0,-271.0,1064.0 
284.0,-276.0,1058.0 
291.0,-280.0,1069.0 
299.0,-282.0,1063.0 
310.0,-281.0,1062.0 
305.0,-285.0,1066.0 
295.0,-277.0,1060.0 
293.0,-273.0,1057.0 
293.0,-276.0,1063.0 
303.0,-276.0,1067.0 
288.0,-284.0,1067.0 
288.0,-276.0,1068.0 
293.0,-280.0,1062.0 
293.0,-275.0,1072.0 
274.0,-277.0,1072.0 
279.0,-281.0,1069.0 
282.0,-285.0,1067.0 
287.0,-273.0,1073.0 
299.0,-281.0,1065.0 
296.0,-278.0,1076.0 
294.0,-268.0,1066.0 
289.0,-264.0,1065.0 
283.0,-269.0,1066.0 
290.0,-284.0,1071.0 
294.0,-283.0,1072.0 
307.0,-288.0,1083.0 
289.0,-309.0,1070.0 
280.0,-295.0,1085.0 
289.0,-283.0,1065.0 
279.0,-265.0,1069.0 
269.0,-261.0,1069.0 
-176.0,-61.0,1099.0 
-176.0,-61.0,1104.0 
-183.0,-65.0,1114.0 
-195.0,-67.0,1101.0 
-195.0,-66.0,1107.0 
-189.0,-66.0,1105.0 
-183.0,-64.0,1103.0 
-182.0,-64.0,1100.0 
-184.0,-58.0,1099.0 
-184.0,-59.0,1101.0 
-184.0,-63.0,1102.0 
-183.0,-66.0,1104.0 
-185.0,-64.0,1102.0 
-180.0,-69.0,1103.0 
-179.0,-71.0,1103.0 
-178.0,-61.0,1102.0 
-184.0,-55.0,1097.0 
-191.0,-51.0,1095.0 
-194.0,-51.0,1101.0 
-194.0,-47.0,1102.0 
-200.0,-58.0,1110.0 
-201.0,-50.0,1103.0 
-204.0,-63.0,1111.0 
-199.0,-60.0,1102.0 
-199.0,-64.0,1112.0 
-198.0,-65.0,1103.0 
-210.0,-59.0,1114.0 
-233.0,-58.0,1114.0 
-226.0,-55.0,1116.0 
-222.0,-60.0,1115.0 
-214.0,-58.0,1113.0 
-214.0,-55.0,1108.0 
-207.0,-54.0,1105.0 
-205.0,-51.0,1098.0 
-219.0,-42.0,1089.0 
-229.0,-45.0,1104.0 
-228.0,-48.0,1098.0 
-227.0,-50.0,1106.0 
-227.0,-46.0,1098.0 
-221.0,-46.0,1105.0 
-216.0,-49.0,1100.0 
-213.0,-64.0,1100.0 
-207.0,-51.0,1101.0 
-203.0,-55.0,1100.0 
-200.0,-57.0,1099.0 
-201.0,-58.0,1099.0 
-197.0,-56.0,1103.0 
-203.0,-53.0,1096.0 
-200.0,-59.0,1094.0 
-190.0,-55.0,1092.0 
-191.0,-58.0,1097.0 
-187.0,-59.0,1092.0 
-182.0,-60.0,1100.0 
-162.0,-65.0,1082.0 
-162.0,-82.0,1112.0 
-164.0,-83.0,1100.0 
-179.0,-88.0,1107.0 
-174.0,-77.0,1103.0 
-169.0,-81.0,1103.0 
-167.0,-85.0,1105.0 
-157.0,-85.0,1104.0 
-140.0,-91.0,1110.0 
-136.0,-95.0,1111.0 
-129.0,-94.0,1106.0 
-123.0,-93.0,1108.0 
-139.0,-95.0,1108.0 
-140.0,-91.0,1108.0 
-135.0,-91.0,1111.0 
-132.0,-109.0,1111.0 
-124.0,-105.0,1115.0 
-121.0,-109.0,1116.0 
-112.0,-113.0,1112.0 
-105.0,-116.0,1122.0 
-103.0,-118.0,1116.0 
-107.0,-113.0,1114.0 
-120.0,-105.0,1113.0 
-126.0,-107.0,1119.0 
-127.0,-106.0,1108.0 
-123.0,-103.0,1124.0 
-123.0,-104.0,1112.0 
-119.0,-105.0,1110.0 
-117.0,-99.0,1103.0 
-124.0,-104.0,1102.0 
-123.0,-100.0,1107.0 
-122.0,-103.0,1104.0 
-128.0,-101.0,1101.0 
-124.0,-98.0,1099.0 
-123.0,-94.0,1095.0 
-106.0,-95.0,1105.0 
-101.0,-98.0,1110.0 
-105.0,-103.0,1107.0 
-108.0,-106.0,1107.0 
-98.0,-106.0,1110.0 
-93.0,-108.0,1111.0 
-97.0,-110.0,1113.0 
-101.0,-101.0,1115.0 
-122.0,-100.0,1114.0 
-121.0,-105.0,1110.0 
-113.0,-107.0,1114.0 
-116.0,-116.0,1111.0 
-97.0,-126.0,1115.0 
-89.0,-130.0,1134.0 
-85.0,-126.0,1132.0 
-87.0,-127.0,1126.0 
-94.0,-124.0,1120.0 
-99.0,-127.0,1121.0 
-90.0,-116.0,1111.0 
-68.0,-129.0,1111.0 
-73.0,-128.0,1119.0 
-75.0,-132.0,1120.0 
-69.0,-138.0,1121.0 
-72.0,-144.0,1120.0 
-68.0,-139.0,1126.0 
-73.0,-134.0,1113.0 
-74.0,-130.0,1116.0 
-79.0,-135.0,1120.0 
-71.0,-140.0,1114.0 
-69.0,-142.0,1102.0 
-88.0,-145.0,1113.0 
-71.0,-134.0,1132.0 
-55.0,-137.0,1105.0 
-88.0,-135.0,1127.0 
-99.0,-134.0,1120.0 
-105.0,-132.0,1123.0 
-83.0,-141.0,1115.0 
-54.0,-137.0,1094.0 
-79.0,-151.0,1097.0 
-63.0,-153.0,1107.0 
-76.0,-161.0,1100.0 
-76.0,-145.0,1097.0 
-86.0,-120.0,1101.0 
-115.0,-148.0,1079.0 
-124.0,-124.0,1102.0 
-118.0,-117.0,1093.0 
-95.0,-119.0,1098.0 
-110.0,-134.0,1093.0 
-120.0,-143.0,1105.0 
-110.0,-142.0,1097.0 
-105.0,-146.0,1102.0 
-101.0,-163.0,1094.0 
-104.0,-161.0,1116.0 
-110.0,-178.0,1132.0 
-89.0,-186.0,1119.0 
-83.0,-194.0,1119.0 
-77.0,-205.0,1125.0 
-81.0,-202.0,1111.0 
-78.0,-194.0,1118.0 
-56.0,-170.0,1110.0 
-42.0,-164.0,1112.0 
-39.0,-167.0,1111.0 
-70.0,-172.0,1109.0 
-57.0,-179.0,1103.0 
-67.0,-189.0,1123.0 
-66.0,-208.0,1121.0 
-74.0,-202.0,1121.0 
-68.0,-203.0,1112.0 
-54.0,-200.0,1119.0 
-50.0,-206.0,1115.0 
-61.0,-200.0,1120.0 
-60.0,-197.0,1115.0 
-62.0,-196.0,1113.0 
-59.0,-195.0,1113.0 
-48.0,-194.0,1111.0 
-47.0,-204.0,1100.0 
-47.0,-204.0,1110.0 
-57.0,-204.0,1123.0 
-55.0,-196.0,1115.0 
-59.0,-205.0,1118.0 
-65.0,-202.0,1118.0 
-49.0,-206.0,1115.0 
-39.0,-198.0,1115.0 
-48.0,-203.0,1111.0 
-54.0,-202.0,1118.0 
-56.0,-203.0,1100.0 
-76.0,-193.0,1115.0 
-74.0,-204.0,1121.0 
-70.0,-195.0,1130.0 
-76.0,-207.0,1125.0 
-73.0,-195.0,1114.0 
-77.0,-199.0,1117.0 
-82.0,-177.0,1103.0 
-76.0,-187.0,1100.0 
-71.0,-182.0,1106.0 
-83.0,-184.0,1108.0 
-77.0,-202.0,1110.0 
-65.0,-196.0,1116.0 
-54.0,-194.0,1107.0 
-47.0,-198.0,1101.0 
-52.0,-206.0,1108.0 
-46.0,-206.0,1108.0 
-48.0,-206.0,1112.0 
-50.0,-205.0,1110.0 
-51.0,-196.0,1108.0 
-67.0,-199.0,1102.0 
-67.0,-197.0,1106.0 
-61.0,-199.0,1100.0 
-58.0,-203.0,1108.0 
-49.0,-202.0,1108.0 
-55.0,-206.0,1104.0 
-49.0,-201.0,1107.0 
-43.0,-42.0,1128.0 
-45.0,-49.0,1128.0 
-41.0,-55.0,1128.0 
-41.0,-57.0,1134.0 
-34.0,-58.0,1132.0 
-31.0,-55.0,1137.0 
-39.0,-54.0,1133.0 
-36.0,-51.0,1133.0 
-43.0,-50.0,1132.0 
-37.0,-63.0,1128.0 
-50.0,-46.0,1130.0 
-49.0,-53.0,1130.0 
-45.0,-52.0,1133.0 
-41.0,-49.0,1135.0 
-30.0,-49.0,1124.0 
-29.0,-53.0,1123.0 
-35.0,-51.0,1126.0 
-39.0,-51.0,1120.0 
-35.0,-52.0,1126.0 
-42.0,-45.0,1125.0 
-48.0,-50.0,1129.0 
-35.0,-58.0,1128.0 
-29.0,-51.0,1128.0 
-27.0,-54.0,1130.0 
-34.0,-54.0,1126.0 
-23.0,-63.0,1127.0 
-30.0,-60.0,1131.0 
-26.0,-59.0,1128.0 
-24.0,-61.0,1121.0 
-9.0,-71.0,1132.0 
-11.0,-67.0,1127.0 
-12.0,-74.0,1136.0 
-5.0,-71.0,1126.0 
-3.0,-68.0,1122.0 
-4.0,-68.0,1125.0 
-5.0,-67.0,1118.0 
-7.0,-66.0,1121.0 
0.0,-65.0,1120.0 
-1.0,-71.0,1129.0 
0.0,-77.0,1129.0 
-3.0,-96.0,1131.0 
2.0,-84.0,1136.0 
-12.0,-75.0,1133.0 
-28.0,-70.0,1133.0 
-43.0,-49.0,1138.0 
-45.0,-43.0,1133.0 
-51.0,-41.0,1129.0 
-55.0,-39.0,1128.0 
-34.0,-38.0,1125.0 
-48.0,-39.0,1134.0 
-64.0,-38.0,1137.0 
-73.0,-24.0,1138.0 
-111.0,-2.0,1122.0 
-115.0,10.0,1109.0 
-109.0,13.0,1104.0 
-112.0,8.0,1109.0 
-109.0,1.0,1109.0 
-111.0,-3.0,1115.0 
-114.0,-9.0,1116.0 
-113.0,-12.0,1126.0 
-91.0,-18.0,1126.0 
-97.0,-26.0,1129.0 
-93.0,-37.0,1129.0 
-93.0,-42.0,1138.0 
-83.0,-61.0,1139.0 
-75.0,-65.0,1142.0 
-70.0,-75.0,1138.0 
-67.0,-90.0,1147.0 
-67.0,-80.0,1150.0 
-71.0,-77.0,1142.0 
-69.0,-71.0,1138.0 
-67.0,-56.0,1127.0 
-75.0,-58.0,1131.0 
-81.0,-55.0,1128.0 
-86.0,-45.0,1140.0 
-88.0,-31.0,1129.0 
-94.0,-19.0,1123.0 
-101.0,-21.0,1127.0 
-102.0,-13.0,1124.0 
-80.0,-15.0,1122.0 
-98.0,-14.0,1122.0 
-106.0,-7.0,1118.0 
-111.0,-8.0,1133.0 
-130.0,-3.0,1112.0 
-132.0,-5.0,1118.0 
-125.0,-1.0,1107.0 
-118.0,-12.0,1098.0 
-103.0,-12.0,1114.0 
-94.0,-17.0,1123.0 
-90.0,-22.0,1126.0 
-96.0,-38.0,1138.0 
-104.0,-36.0,1131.0 
-114.0,-35.0,1129.0 
-120.0,-27.0,1125.0 
-129.0,-26.0,1124.0 
-115.0,-26.0,1127.0 
-109.0,-27.0,1126.0 
-99.0,-22.0,1130.0 
-110.0,-12.0,1122.0 
-125.0,-9.0,1129.0 
-133.0,-7.0,1118.0 
-134.0,-4.0,1118.0 
-134.0,-4.0,1107.0 
-142.0,4.0,1108.0 
-138.0,2.0,1105.0 
-138.0,-1.0,1103.0 
-128.0,0.0,1113.0 
-145.0,1.0,1107.0 
-152.0,3.0,1109.0 
-149.0,7.0,1115.0 
-137.0,-5.0,1115.0 
-133.0,-5.0,1104.0 
-134.0,-10.0,1115.0 
-136.0,-6.0,1129.0 
-135.0,-16.0,1126.0 
-132.0,-17.0,1114.0 
-133.0,-14.0,1108.0 
-133.0,-10.0,1110.0 
-118.0,-6.0,1117.0 
-118.0,-11.0,1115.0 
-111.0,-27.0,1121.0 
-115.0,-32.0,1117.0 
-129.0,-22.0,1113.0 
-145.0,-16.0,1109.0 
-145.0,-18.0,1115.0 
-143.0,-13.0,1120.0 
-119.0,-23.0,1119.0 
-109.0,-17.0,1121.0 
-117.0,-8.0,1112.0 
-139.0,3.0,1118.0 
-157.0,6.0,1116.0 
-157.0,7.0,1108.0 
-154.0,9.0,1103.0 
-178.0,5.0,1121.0 
-178.0,12.0,1116.0 
-180.0,7.0,1121.0 
-185.0,16.0,1112.0 
-168.0,24.0,1109.0 
-188.0,29.0,1102.0 
-196.0,23.0,1110.0 
-183.0,12.0,1090.0 
-180.0,5.0,1104.0 
-184.0,10.0,1105.0 
-200.0,13.0,1113.0 
-215.0,11.0,1112.0 
-199.0,20.0,1107.0 
-199.0,33.0,1106.0 
-182.0,29.0,1097.0 
-187.0,41.0,1084.0 
-205.0,32.0,1101.0 
-209.0,40.0,1092.0 
-207.0,38.0,1099.0 
-214.0,37.0,1101.0 
-222.0,48.0,1098.0 
-216.0,50.0,1105.0 
-215.0,40.0,1092.0 
-224.0,25.0,1081.0 
-193.0,13.0,1103.0 
-196.0,16.0,1107.0 
-202.0,21.0,1103.0 
-209.0,22.0,1110.0 
-198.0,31.0,1111.0 
-194.0,24.0,1105.0 
-188.0,23.0,1101.0 
-189.0,22.0,1095.0 
-189.0,22.0,1091.0 
-191.0,26.0,1092.0 
-196.0,27.0,1103.0 
-209.0,33.0,1107.0 
-215.0,41.0,1101.0 
-217.0,49.0,1098.0 
-215.0,43.0,1085.0 
-208.0,36.0,1094.0 
-191.0,43.0,1081.0 
-180.0,32.0,1083.0 
-177.0,27.0,1105.0 
-196.0,18.0,1108.0 
-206.0,22.0,1107.0 
-218.0,34.0,1107.0 
-223.0,36.0,1096.0 
-215.0,35.0,1092.0 
-209.0,25.0,1101.0 
-200.0,32.0,1103.0 
-208.0,34.0,1104.0 
-232.0,41.0,1104.0 
-238.0,51.0,1095.0 
-247.0,53.0,1100.0 
-255.0,58.0,1096.0 
-257.0,49.0,1088.0 
-247.0,48.0,1079.0 
-244.0,45.0,1086.0 
-220.0,50.0,1077.0 
-216.0,50.0,1076.0 
-218.0,46.0,1078.0 
-214.0,39.0,1079.0 
-212.0,35.0,1056.0 
-176.0,15.0,1111.0 
-210.0,-11.0,1120.0 
-201.0,5.0,1114.0 
-211.0,24.0,1112.0 
-162.0,-19.0,1113.0 
-165.0,-27.0,1112.0 
-161.0,-33.0,1119.0 
-163.0,-30.0,1124.0 
-156.0,-27.0,1117.0 
-163.0,-24.0,1116.0 
-161.0,-22.0,1113.0 
-155.0,-20.0,1113.0 
-154.0,-16.0,1110.0 
-152.0,-18.0,1113.0 
-155.0,-26.0,1116.0 
-155.0,-24.0,1113.0 
-150.0,-46.0,1113.0 
-152.0,-34.0,1117.0 
-156.0,-28.0,1119.0 
-151.0,-27.0,1111.0 
-151.0,-22.0,1115.0 
-149.0,-22.0,1111.0 
-148.0,-22.0,1110.0 
-147.0,-22.0,1105.0 
-157.0,-21.0,1112.0 
-141.0,-26.0,1116.0 
-139.0,-15.0,1106.0 
-141.0,-15.0,1104.0 
-149.0,-13.0,1105.0 
-155.0,-13.0,1115.0 
-154.0,-19.0,1108.0 
-165.0,-26.0,1125.0 
-153.0,-36.0,1129.0 
-148.0,-40.0,1135.0 
-144.0,-60.0,1147.0 
-158.0,-39.0,1123.0 
-161.0,-47.0,1135.0 
-152.0,-30.0,1108.0 
-161.0,-31.0,1133.0 
-145.0,-23.0,1113.0 
-155.0,-23.0,1110.0 
-148.0,-16.0,1106.0 
-148.0,-26.0,1121.0 
-143.0,-26.0,1112.0 
-142.0,-40.0,1118.0 
-137.0,-31.0,1109.0 
-128.0,-44.0,1108.0 
-134.0,-41.0,1109.0 
-138.0,-38.0,1114.0 
-133.0,-33.0,1118.0 
-131.0,-39.0,1120.0 
-130.0,-38.0,1110.0 
-129.0,-34.0,1114.0 
-123.0,-29.0,1114.0 
-122.0,-39.0,1124.0 
-115.0,-43.0,1112.0 
-114.0,-46.0,1115.0 
-115.0,-49.0,1125.0 
-115.0,-52.0,1104.0 
-120.0,-40.0,1106.0 
-118.0,-43.0,1109.0 
-101.0,-46.0,1107.0 
-126.0,-69.0,1118.0 
-128.0,-65.0,1131.0 
-111.0,-52.0,1120.0 
-103.0,-47.0,1105.0 
-104.0,-58.0,1118.0 
-83.0,-51.0,1117.0 
-77.0,-72.0,1070.0 
-96.0,-83.0,1146.0 
-88.0,-90.0,1121.0 
-93.0,-77.0,1106.0 
-93.0,-80.0,1121.0 
-81.0,-96.0,1128.0 
-70.0,-94.0,1123.0 
-38.0,-103.0,1116.0 
-34.0,-109.0,1136.0 
-31.0,-112.0,1120.0 
-46.0,-115.0,1130.0 
-32.0,-106.0,1116.0 
-43.0,-128.0,1135.0 
-38.0,-112.0,1112.0 
-22.0,-109.0,1136.0 
-8.0,-119.0,1115.0 
-2.0,-100.0,1127.0 
3.0,-152.0,1122.0 
25.0,-145.0,1124.0 
27.0,-136.0,1103.0 
13.0,-148.0,1127.0 
19.0,-138.0,1105.0 
12.0,-140.0,1117.0 
25.0,-137.0,1111.0 
30.0,-133.0,1103.0 
36.0,-148.0,1100.0 
51.0,-162.0,1117.0 
65.0,-166.0,1113.0 
72.0,-180.0,1116.0 
86.0,-180.0,1116.0 
82.0,-182.0,1111.0 
82.0,-181.0,1108.0 
68.0,-191.0,1118.0 
68.0,-231.0,1163.0 
100.0,-192.0,1104.0 
78.0,-229.0,1121.0 
100.0,-215.0,1127.0 
131.0,-231.0,1121.0 
153.0,-226.0,1118.0 
150.0,-230.0,1125.0 
124.0,-221.0,1117.0 
101.0,-205.0,1109.0 
100.0,-210.0,1107.0 
107.0,-214.0,1109.0 
116.0,-218.0,1110.0 
152.0,-219.0,1098.0 
169.0,-218.0,1094.0 
171.0,-263.0,1118.0 
177.0,-248.0,1097.0 
171.0,-235.0,1097.0 
169.0,-214.0,1099.0 
174.0,-225.0,1084.0 
167.0,-201.0,1090.0 
179.0,-211.0,1081.0 
185.0,-209.0,1070.0 
184.0,-221.0,1088.0 
199.0,-247.0,1098.0 
216.0,-259.0,1089.0 
224.0,-296.0,1116.0 
239.0,-240.0,1106.0 
212.0,-252.0,1080.0 
208.0,-256.0,1078.0 
200.0,-250.0,1077.0 
206.0,-247.0,1102.0 
208.0,-239.0,1092.0 
249.0,-284.0,1104.0 
274.0,-266.0,1078.0 
277.0,-296.0,1083.0 
300.0,-301.0,1086.0 
271.0,-301.0,1088.0 
253.0,-297.0,1084.0 
222.0,-287.0,1092.0 
225.0,-256.0,1085.0 
230.0,-256.0,1091.0 
233.0,-262.0,1080.0 
241.0,-263.0,1076.0 
280.0,-276.0,1074.0 
286.0,-285.0,1081.0 
273.0,-297.0,1086.0 
269.0,-282.0,1076.0 
253.0,-278.0,1078.0 
254.0,-276.0,1081.0 
250.0,-272.0,1075.0 
242.0,-267.0,1082.0 
248.0,-268.0,1079.0 
257.0,-268.0,1072.0 
251.0,-273.0,1075.0 
248.0,-274.0,1080.0 
259.0,-269.0,1075.0 
251.0,-259.0,1081.0 
246.0,-267.0,1079.0 
244.0,-272.0,1079.0 
239.0,-269.0,1081.0 
237.0,-264.0,1077.0 
241.0,-264.0,1085.0 
246.0,-264.0,1066.0 
240.0,-267.0,1079.0 
244.0,-259.0,1081.0 
258.0,-261.0,1089.0 
233.0,-278.0,1088.0 
214.0,-281.0,1097.0 
182.0,-294.0,1090.0 
220.0,-268.0,1076.0 
246.0,-221.0,1114.0 
258.0,-282.0,1080.0 
275.0,-278.0,1083.0 
263.0,-292.0,1081.0 
240.0,-301.0,1089.0 
241.0,-292.0,1085.0 
245.0,-299.0,1085.0 
242.0,-288.0,1068.0 
252.0,-271.0,1081.0 
246.0,-262.0,1084.0 
243.0,-254.0,1078.0 
221.0,-232.0,1071.0 
213.0,-222.0,1070.0 
220.0,-223.0,1066.0 
225.0,-232.0,1050.0 
238.0,-229.0,1067.0 
228.0,-247.0,1058.0 
254.0,-256.0,1051.0 
243.0,-278.0,1069.0 
268.0,-275.0,1076.0 
262.0,-268.0,1066.0 
262.0,-267.0,1057.0 
253.0,-262.0,1066.0 
251.0,-272.0,1075.0 
245.0,-294.0,1085.0 
274.0,-280.0,1076.0 
257.0,-303.0,1089.0 
276.0,-313.0,1098.0 
287.0,-305.0,1097.0 
283.0,-309.0,1091.0 
278.0,-300.0,1084.0 
277.0,-287.0,1079.0 
287.0,-281.0,1078.0 
225.0,-273.0,1079.0 
228.0,-270.0,1081.0 
230.0,-274.0,1081.0 
233.0,-279.0,1080.0 
227.0,-279.0,1082.0 
233.0,-277.0,1083.0 
227.0,-272.0,1085.0 
223.0,-268.0,1078.0 
218.0,-274.0,1075.0 
221.0,-268.0,1080.0 
222.0,-271.0,1079.0 
228.0,-275.0,1085.0 
218.0,-278.0,1082.0 
218.0,-281.0,1081.0 
219.0,-276.0,1079.0 
219.0,-268.0,1089.0 
211.0,-270.0,1085.0 
206.0,-273.0,1085.0 
204.0,-271.0,1087.0 
208.0,-272.0,1083.0 
214.0,-282.0,1086.0 
221.0,-276.0,1084.0 
230.0,-282.0,1082.0 
229.0,-279.0,1080.0 
226.0,-277.0,1079.0 
228.0,-273.0,1074.0 
225.0,-277.0,1073.0 
227.0,-280.0,1078.0 
234.0,-274.0,1079.0 
245.0,-277.0,1076.0 
259.0,-278.0,1081.0 
261.0,-287.0,1073.0 
256.0,-285.0,1081.0 
250.0,-284.0,1079.0 
244.0,-280.0,1079.0 
239.0,-278.0,1076.0 
244.0,-266.0,1083.0 
244.0,-276.0,1088.0 
240.0,-284.0,1081.0 
244.0,-288.0,1080.0 
232.0,-285.0,1081.0 
225.0,-280.0,1082.0 
219.0,-278.0,1082.0 
224.0,-270.0,1077.0 
225.0,-266.0,1081.0 
209.0,-261.0,1075.0 
180.0,-265.0,1086.0 
182.0,-262.0,1092.0 
188.0,-258.0,1085.0 
192.0,-263.0,1101.0 
215.0,-266.0,1086.0 
208.0,-268.0,1084.0 
188.0,-272.0,1091.0 
173.0,-263.0,1074.0 
170.0,-261.0,1093.0 
171.0,-257.0,1091.0 
178.0,-258.0,1084.0 
187.0,-258.0,1077.0 
199.0,-269.0,1085.0 
203.0,-272.0,1082.0 
198.0,-272.0,1091.0 
182.0,-258.0,1089.0 
178.0,-263.0,1090.0 
186.0,-260.0,1086.0 
185.0,-260.0,1086.0 
181.0,-262.0,1089.0 
198.0,-267.0,1092.0 
199.0,-272.0,1092.0 
206.0,-274.0,1096.0 
209.0,-270.0,1085.0 
185.0,-266.0,1094.0 
177.0,-264.0,1095.0 
171.0,-261.0,1088.0 
146.0,-251.0,1090.0 
156.0,-253.0,1084.0 
166.0,-248.0,1085.0 
174.0,-252.0,1089.0 
178.0,-259.0,1087.0 
177.0,-260.0,1089.0 
164.0,-255.0,1087.0 
149.0,-253.0,1103.0 
136.0,-250.0,1102.0 
135.0,-253.0,1094.0 
144.0,-250.0,1102.0 
155.0,-258.0,1091.0 
143.0,-266.0,1103.0 
132.0,-264.0,1101.0 
116.0,-254.0,1105.0 
105.0,-249.0,1109.0 
101.0,-243.0,1107.0 
96.0,-237.0,1112.0 
93.0,-239.0,1104.0 
92.0,-235.0,1096.0 
96.0,-242.0,1097.0 
104.0,-244.0,1101.0 
112.0,-246.0,1104.0 
106.0,-244.0,1096.0 
94.0,-235.0,1095.0 
94.0,-229.0,1098.0 
84.0,-225.0,1100.0 
82.0,-231.0,1104.0 
85.0,-227.0,1095.0 
87.0,-234.0,1103.0 
87.0,-226.0,1102.0 
61.0,-230.0,1108.0 
54.0,-225.0,1111.0 
53.0,-223.0,1107.0 
57.0,-222.0,1111.0 
60.0,-220.0,1102.0 
74.0,-225.0,1101.0 
84.0,-234.0,1095.0 
89.0,-235.0,1100.0 
86.0,-234.0,1106.0 
71.0,-202.0,1123.0 
72.0,-238.0,1097.0 
58.0,-217.0,1109.0 
35.0,-204.0,1110.0 
46.0,-194.0,1094.0 
38.0,-207.0,1097.0 
41.0,-209.0,1121.0 
74.0,-214.0,1090.0 
42.0,-234.0,1119.0 
50.0,-232.0,1114.0 
48.0,-222.0,1116.0 
18.0,-217.0,1117.0 
13.0,-215.0,1117.0 
24.0,-217.0,1110.0 
29.0,-233.0,1112.0 
49.0,-228.0,1113.0 
39.0,-235.0,1111.0 
34.0,-229.0,1113.0 
7.0,-216.0,1108.0 
-17.0,-202.0,1106.0 
-15.0,-202.0,1109.0 
-1.0,-201.0,1114.0 
26.0,-211.0,1115.0 
23.0,-226.0,1113.0 
47.0,-231.0,1114.0 
56.0,-232.0,1113.0 
45.0,-233.0,1113.0 
25.0,-224.0,1113.0 
15.0,-218.0,1110.0 
7.0,-205.0,1110.0 
9.0,-203.0,1108.0 
10.0,-202.0,1103.0 
20.0,-210.0,1112.0 
38.0,-213.0,1107.0 
49.0,-225.0,1110.0 
48.0,-230.0,1112.0 
40.0,-229.0,1114.0 
37.0,-220.0,1105.0 
14.0,-214.0,1115.0 
8.0,-209.0,1108.0 
7.0,-210.0,1100.0 
14.0,-203.0,1103.0 
29.0,-214.0,1100.0 
34.0,-218.0,1103.0 
39.0,-220.0,1101.0 
21.0,-228.0,1114.0 
17.0,-219.0,1113.0 
12.0,-210.0,1112.0 
16.0,-205.0,1104.0 
8.0,-199.0,1102.0 
0.0,-208.0,1111.0 
1.0,-202.0,1099.0 
7.0,-207.0,1091.0 
14.0,-222.0,1096.0 
12.0,-215.0,1118.0 
12.0,-219.0,1106.0 
10.0,-216.0,1091.0 
0.0,-220.0,1100.0 
-24.0,-209.0,1121.0 
-16.0,-212.0,1107.0 
1.0,-211.0,1110.0 
16.0,-218.0,1111.0 
19.0,-215.0,1112.0 
17.0,-223.0,1112.0 
7.0,-221.0,1114.0 
-8.0,-211.0,1108.0 
-17.0,-206.0,1102.0 
-16.0,-204.0,1108.0 
-8.0,-209.0,1105.0 
9.0,-211.0,1112.0 
7.0,-216.0,1112.0 
5.0,-217.0,1109.0 
5.0,-209.0,1114.0 
-21.0,-215.0,1108.0 
-25.0,-204.0,1107.0 
-26.0,-203.0,1111.0 
-24.0,-209.0,1111.0 
-21.0,-216.0,1121.0 
-14.0,-215.0,1118.0 
-5.0,-214.0,1110.0 
-12.0,-206.0,1108.0 
-20.0,-202.0,1105.0 
-21.0,-203.0,1110.0 
-38.0,-197.0,1101.0 
-47.0,-194.0,1106.0 
-47.0,-198.0,1109.0 
-32.0,-203.0,1108.0 
-93.0,-172.0,1111.0 
-91.0,-166.0,1106.0 
-99.0,-167.0,1108.0 
-98.0,-166.0,1109.0 
-88.0,-171.0,1108.0 
-87.0,-175.0,1108.0 
-91.0,-176.0,1112.0 
-86.0,-178.0,1111.0 
-79.0,-176.0,1107.0 
-81.0,-179.0,1116.0 
-83.0,-180.0,1115.0 
-79.0,-190.0,1107.0 
-84.0,-174.0,1100.0 
-86.0,-174.0,1112.0 
-87.0,-174.0,1113.0 
-87.0,-170.0,1118.0 
-78.0,-172.0,1107.0 
-75.0,-172.0,1120.0 
-75.0,-181.0,1115.0 
-75.0,-182.0,1118.0 
-81.0,-181.0,1113.0 
-85.0,-175.0,1114.0 
-90.0,-171.0,1123.0 
-102.0,-161.0,1125.0 
-114.0,-159.0,1122.0 
-117.0,-155.0,1115.0 
-116.0,-153.0,1114.0 
-118.0,-148.0,1114.0 
-120.0,-152.0,1114.0 
-127.0,-157.0,1115.0 
-136.0,-154.0,1129.0 
-145.0,-152.0,1118.0 
-148.0,-146.0,1123.0 
-147.0,-149.0,1120.0 
-143.0,-147.0,1112.0 
-134.0,-162.0,1117.0 
-127.0,-166.0,1115.0 
-126.0,-166.0,1118.0 
-114.0,-162.0,1116.0 
-110.0,-167.0,1116.0 
-112.0,-168.0,1123.0 
-103.0,-173.0,1115.0 
-94.0,-169.0,1110.0 
-88.0,-166.0,1105.0 
-80.0,-167.0,1106.0 
-56.0,-164.0,1106.0 
-55.0,-184.0,1109.0 
-84.0,-185.0,1110.0 
-58.0,-181.0,1109.0 
-51.0,-172.0,1101.0 
-64.0,-176.0,1120.0 
-44.0,-184.0,1123.0 
-48.0,-180.0,1117.0 
-45.0,-174.0,1093.0 
-28.0,-186.0,1104.0 
-22.0,-192.0,1100.0 
-16.0,-199.0,1102.0 
-8.0,-197.0,1096.0 
-9.0,-205.0,1110.0 
-4.0,-206.0,1116.0 
-5.0,-200.0,1117.0 
-6.0,-199.0,1113.0 
4.0,-193.0,1110.0 
18.0,-195.0,1102.0 
20.0,-198.0,1100.0 
22.0,-202.0,1103.0 
11.0,-211.0,1100.0 
21.0,-214.0,1099.0 
25.0,-209.0,1101.0 
22.0,-210.0,1106.0 
37.0,-203.0,1111.0 
13.0,-209.0,1065.0 
71.0,-207.0,1079.0 
72.0,-208.0,1087.0 
72.0,-212.0,1097.0 
74.0,-212.0,1089.0 
83.0,-218.0,1097.0 
110.0,-215.0,1099.0 
87.0,-217.0,1097.0 
79.0,-224.0,1102.0 
87.0,-209.0,1099.0 
78.0,-222.0,1105.0 
81.0,-231.0,1099.0 
93.0,-233.0,1101.0 
100.0,-233.0,1101.0 
130.0,-253.0,1097.0 
138.0,-252.0,1099.0 
139.0,-256.0,1100.0 
144.0,-253.0,1099.0 
151.0,-247.0,1093.0 
143.0,-244.0,1091.0 
140.0,-241.0,1091.0 
146.0,-242.0,1089.0 
161.0,-253.0,1082.0 
164.0,-256.0,1082.0 
173.0,-261.0,1085.0 
183.0,-259.0,1091.0 
185.0,-267.0,1094.0 
190.0,-263.0,1104.0 
195.0,-263.0,1101.0 
190.0,-261.0,1094.0 
195.0,-258.0,1094.0 
200.0,-266.0,1089.0 
197.0,-265.0,1084.0 
220.0,-270.0,1083.0 
204.0,-274.0,1082.0 
201.0,-269.0,1086.0 
202.0,-267.0,1101.0 
217.0,-265.0,1091.0 
209.0,-265.0,1091.0 
205.0,-258.0,1086.0 
205.0,-263.0,1102.0 
208.0,-271.0,1085.0 
216.0,-268.0,1091.0 
216.0,-270.0,1088.0 
217.0,-276.0,1091.0 
205.0,-261.0,1085.0 
212.0,-264.0,1085.0 
209.0,-262.0,1082.0 
213.0,-269.0,1093.0 
229.0,-278.0,1083.0 
224.0,-273.0,1086.0 
242.0,-270.0,1069.0 
241.0,-287.0,1091.0 
229.0,-271.0,1088.0 
217.0,-273.0,1092.0 
209.0,-272.0,1084.0 
205.0,-268.0,1090.0 
217.0,-263.0,1084.0 
224.0,-265.0,1073.0 
217.0,-264.0,1084.0 
212.0,-274.0,1082.0 
219.0,-270.0,1079.0 
221.0,-263.0,1089.0 
218.0,-255.0,1080.0 
214.0,-247.0,1082.0 
208.0,-248.0,1076.0 
207.0,-248.0,1073.0 
207.0,-254.0,1076.0 
205.0,-274.0,1078.0 
256.0,-263.0,1070.0 
241.0,-273.0,1073.0 
230.0,-281.0,1091.0 
231.0,-282.0,1094.0 
229.0,-281.0,1088.0 
230.0,-277.0,1089.0 
231.0,-276.0,1083.0 
236.0,-271.0,1085.0 
242.0,-280.0,1086.0 
253.0,-283.0,1083.0 
241.0,-302.0,1092.0 
260.0,-271.0,1068.0 
256.0,-276.0,1088.0 
256.0,-271.0,1073.0 
255.0,-263.0,1069.0 
246.0,-257.0,1065.0 
251.0,-257.0,1062.0 
251.0,-259.0,1057.0 
259.0,-268.0,1066.0 
267.0,-277.0,1074.0 
271.0,-279.0,1069.0 
266.0,-281.0,1071.0 
263.0,-284.0,1084.0 
252.0,-284.0,1082.0 
250.0,-281.0,1081.0 
248.0,-267.0,1086.0 
262.0,-283.0,1078.0 
267.0,-287.0,1074.0 
258.0,-288.0,1079.0 
264.0,-288.0,1085.0 
256.0,-291.0,1088.0 
247.0,-290.0,1085.0 
251.0,-286.0,1091.0 
247.0,-285.0,1087.0 
246.0,-280.0,1087.0 
246.0,-276.0,1086.0 
247.0,-278.0,1082.0 
241.0,-252.0,1077.0 
221.0,-249.0,1076.0 
210.0,-239.0,1062.0 
202.0,-239.0,1060.0 
200.0,-237.0,1056.0 
208.0,-248.0,1072.0 
212.0,-259.0,1066.0 
220.0,-267.0,1073.0 
244.0,-274.0,1090.0 
237.0,-276.0,1091.0 
237.0,-274.0,1084.0 
240.0,-266.0,1086.0 
237.0,-267.0,1078.0 
223.0,-264.0,1085.0 
216.0,-265.0,1081.0 
213.0,-266.0,1097.0 
227.0,-274.0,1087.0 
233.0,-276.0,1087.0 
240.0,-279.0,1084.0 
249.0,-279.0,1081.0 
271.0,-273.0,1089.0 
264.0,-266.0,1067.0 
250.0,-269.0,1069.0 
55.0,-206.0,1107.0 
167.0,-201.0,1116.0 
160.0,-202.0,1107.0 
160.0,-203.0,1110.0 
161.0,-200.0,1109.0 
164.0,-204.0,1103.0 
163.0,-204.0,1103.0 
156.0,-202.0,1108.0 
156.0,-205.0,1107.0 
159.0,-206.0,1104.0 
158.0,-206.0,1109.0 
157.0,-210.0,1109.0 
161.0,-196.0,1112.0 
155.0,-203.0,1112.0 
154.0,-201.0,1112.0 
156.0,-198.0,1110.0 
158.0,-200.0,1116.0 
156.0,-195.0,1112.0 
161.0,-196.0,1109.0 
166.0,-201.0,1110.0 
190.0,-216.0,1084.0 
160.0,-208.0,1100.0 
139.0,-197.0,1103.0 
144.0,-197.0,1098.0 
159.0,-204.0,1110.0 
159.0,-206.0,1120.0 
166.0,-217.0,1120.0 
163.0,-212.0,1109.0 
155.0,-211.0,1117.0 
158.0,-205.0,1118.0 
157.0,-209.0,1122.0 
158.0,-199.0,1108.0 
150.0,-186.0,1109.0 
153.0,-196.0,1109.0 
146.0,-186.0,1115.0 
149.0,-169.0,1089.0 
146.0,-182.0,1092.0 
146.0,-188.0,1104.0 
145.0,-189.0,1102.0 
145.0,-188.0,1108.0 
147.0,-196.0,1109.0 
148.0,-196.0,1119.0 
146.0,-198.0,1125.0 
152.0,-198.0,1123.0 
150.0,-214.0,1127.0 
146.0,-208.0,1129.0 
138.0,-200.0,1121.0 
135.0,-204.0,1121.0 
137.0,-219.0,1142.0 
143.0,-187.0,1106.0 
141.0,-200.0,1135.0 
132.0,-173.0,1122.0 
81.0,-228.0,1123.0 
161.0,-150.0,1098.0 
166.0,-171.0,1099.0 
102.0,-164.0,1115.0 
102.0,-163.0,1097.0 
107.0,-186.0,1104.0 
96.0,-173.0,1128.0 
114.0,-172.0,1131.0 
105.0,-186.0,1132.0 
99.0,-184.0,1139.0 
95.0,-182.0,1125.0 
112.0,-191.0,1136.0 
109.0,-187.0,1154.0 
119.0,-191.0,1134.0 
114.0,-196.0,1130.0 
106.0,-169.0,1117.0 
108.0,-155.0,1110.0 
107.0,-151.0,1113.0 
105.0,-158.0,1122.0 
89.0,-146.0,1134.0 
106.0,-137.0,1117.0 
100.0,-135.0,1118.0 
98.0,-131.0,1123.0 
97.0,-152.0,1135.0 
100.0,-138.0,1127.0 
101.0,-138.0,1116.0 
107.0,-148.0,1122.0 
102.0,-132.0,1147.0 
110.0,-138.0,1123.0 
101.0,-139.0,1127.0 
92.0,-123.0,1124.0 
83.0,-123.0,1125.0 
72.0,-125.0,1127.0 
71.0,-119.0,1130.0 
55.0,-127.0,1138.0 
58.0,-122.0,1137.0 
25.0,-153.0,1146.0 
86.0,-89.0,1124.0 
46.0,-102.0,1141.0 
39.0,-100.0,1137.0 
38.0,-91.0,1128.0 
27.0,-94.0,1140.0 
19.0,-92.0,1138.0 
11.0,-92.0,1136.0 
12.0,-76.0,1136.0 
16.0,-55.0,1121.0 
12.0,-56.0,1121.0 
12.0,-51.0,1125.0 
15.0,-59.0,1127.0 
14.0,-57.0,1126.0 
16.0,-63.0,1127.0 
15.0,-67.0,1133.0 
16.0,-51.0,1115.0 
10.0,-45.0,1126.0 
-10.0,-36.0,1124.0 
-14.0,-45.0,1125.0 
-17.0,-29.0,1121.0 
-22.0,-31.0,1128.0 
-19.0,-24.0,1118.0 
-24.0,-34.0,1127.0 
-19.0,-27.0,1127.0 
-16.0,-36.0,1131.0 
-15.0,-40.0,1141.0 
-20.0,-36.0,1137.0 
-12.0,-29.0,1121.0 
-29.0,-19.0,1135.0 
-43.0,-9.0,1122.0 
-41.0,-1.0,1124.0 
-37.0,1.0,1113.0 
-64.0,1.0,1118.0 
-62.0,-4.0,1132.0 
-57.0,8.0,1129.0 
-49.0,13.0,1129.0 
-47.0,-1.0,1137.0 
-54.0,-4.0,1136.0 
-52.0,-14.0,1129.0 
-53.0,-5.0,1134.0 
-68.0,32.0,1120.0 
-41.0,17.0,1109.0 
-80.0,18.0,1119.0 
-69.0,54.0,1133.0 
-79.0,30.0,1141.0 
-85.0,22.0,1117.0 
-79.0,41.0,1109.0 
-57.0,35.0,1113.0 
-68.0,64.0,1138.0 
-88.0,20.0,1099.0 
-85.0,24.0,1112.0 
-131.0,33.0,1119.0 
-101.0,23.0,1103.0 
-98.0,63.0,1100.0 
-111.0,46.0,1100.0 
-138.0,53.0,1114.0 
-143.0,49.0,1109.0 
-130.0,39.0,1130.0 
-117.0,32.0,1138.0 
-135.0,39.0,1115.0 
-131.0,8.0,1145.0 
-116.0,34.0,1125.0 
-118.0,63.0,1137.0 
-136.0,33.0,1127.0 
-142.0,29.0,1113.0 
-138.0,43.0,1121.0 
-146.0,53.0,1113.0 
-138.0,57.0,1119.0 
-134.0,76.0,1105.0 
-134.0,65.0,1100.0 
-141.0,60.0,1107.0 
-158.0,72.0,1113.0 
-137.0,53.0,1100.0 
-143.0,49.0,1115.0 
-148.0,46.0,1126.0 
-143.0,50.0,1126.0 
-141.0,56.0,1111.0 
-136.0,76.0,1109.0 
-147.0,67.0,1104.0 
-148.0,79.0,1106.0 
-159.0,65.0,1111.0 
-149.0,49.0,1119.0 
-154.0,42.0,1107.0 
-158.0,54.0,1114.0 
-141.0,53.0,1118.0 
-143.0,70.0,1120.0 
-142.0,64.0,1115.0 
-153.0,57.0,1109.0 
-166.0,51.0,1131.0 
-169.0,48.0,1121.0 
-157.0,79.0,1104.0 
-170.0,64.0,1104.0 
-183.0,75.0,1121.0 
-184.0,43.0,1120.0 
-169.0,46.0,1121.0 
-161.0,46.0,1117.0 
-159.0,56.0,1106.0 
-157.0,75.0,1110.0 
-171.0,70.0,1107.0 
-173.0,62.0,1096.0 
-163.0,59.0,1107.0 
-186.0,60.0,1111.0 
-184.0,41.0,1132.0 
-142.0,63.0,1094.0 
-169.0,69.0,1099.0 
-163.0,87.0,1105.0 
-167.0,73.0,1100.0 
-175.0,86.0,1108.0 
-170.0,50.0,1088.0 
-175.0,59.0,1105.0 
-168.0,69.0,1110.0 
-173.0,-46.0,1111.0 
-170.0,-50.0,1110.0 
-191.0,-35.0,1127.0 
-182.0,-47.0,1105.0 
-170.0,-36.0,1103.0 
-172.0,-33.0,1116.0 
-176.0,-30.0,1123.0 
-173.0,-32.0,1100.0 
-177.0,-34.0,1107.0 
-166.0,-52.0,1117.0 
-161.0,-45.0,1101.0 
-161.0,-27.0,1116.0 
-173.0,-36.0,1105.0 
-172.0,-33.0,1105.0 
-164.0,-21.0,1101.0 
-168.0,-26.0,1104.0 
-175.0,-36.0,1105.0 
-167.0,-36.0,1108.0 
-159.0,-27.0,1098.0 
-157.0,-28.0,1095.0 
-150.0,-24.0,1106.0 
-152.0,-52.0,1109.0 
-173.0,-45.0,1115.0 
-164.0,-54.0,1108.0 
-158.0,-46.0,1106.0 
-159.0,-40.0,1106.0 
-156.0,-36.0,1098.0 
-157.0,-55.0,1097.0 
-156.0,-13.0,1115.0 
-145.0,-47.0,1108.0 
-148.0,-43.0,1104.0 
-155.0,-32.0,1113.0 
-155.0,-30.0,1125.0 
-100.0,-28.0,1084.0 
-157.0,-57.0,1109.0 
-177.0,-64.0,1128.0 
-145.0,-52.0,1099.0 
-146.0,-68.0,1117.0 
-159.0,-65.0,1120.0 
-164.0,-80.0,1130.0 
-135.0,-66.0,1115.0 
-126.0,-65.0,1109.0 
-135.0,-78.0,1119.0 
-133.0,-90.0,1138.0 
-97.0,-90.0,1105.0 
-121.0,-29.0,1119.0 
-119.0,-57.0,1097.0 
-115.0,-53.0,1112.0 
-119.0,-66.0,1103.0 
-113.0,-88.0,1114.0 
-115.0,-93.0,1115.0 
-112.0,-103.0,1121.0 
-118.0,-93.0,1115.0 
-99.0,-105.0,1121.0 
-109.0,-98.0,1115.0 
-111.0,-108.0,1103.0 
-92.0,-104.0,1106.0 
-93.0,-91.0,1110.0 
-77.0,-88.0,1122.0 
-57.0,-105.0,1130.0 
-66.0,-120.0,1128.0 
-69.0,-147.0,1129.0 
-44.0,-132.0,1107.0 
-90.0,-133.0,1133.0 
-83.0,-143.0,1132.0 
-73.0,-128.0,1118.0 
-72.0,-125.0,1123.0 
-69.0,-120.0,1126.0 
-32.0,-121.0,1117.0 
-19.0,-162.0,1128.0 
10.0,-129.0,1125.0 
-33.0,-116.0,1120.0 
-29.0,-105.0,1099.0 
-41.0,-123.0,1108.0 
-36.0,-117.0,1085.0 
-34.0,-122.0,1093.0 
-32.0,-140.0,1099.0 
-12.0,-153.0,1092.0 
6.0,-166.0,1125.0 
27.0,-158.0,1114.0 
39.0,-200.0,1115.0 
42.0,-154.0,1125.0 
30.0,-165.0,1120.0 
25.0,-173.0,1107.0 
27.0,-176.0,1093.0 
16.0,-187.0,1095.0 
22.0,-195.0,1110.0 
36.0,-203.0,1123.0 
48.0,-250.0,1110.0 
75.0,-241.0,1117.0 
94.0,-262.0,1151.0 
121.0,-269.0,1147.0 
84.0,-279.0,1159.0 
60.0,-264.0,1163.0 
49.0,-253.0,1144.0 
65.0,-220.0,1125.0 
74.0,-216.0,1114.0 
66.0,-214.0,1123.0 
60.0,-234.0,1104.0 
89.0,-258.0,1076.0 
123.0,-286.0,1094.0 
138.0,-307.0,1099.0 
159.0,-275.0,1070.0 
239.0,-310.0,1152.0 
44.0,-295.0,1174.0 
6.0,-276.0,1159.0 
51.0,-180.0,1102.0 
126.0,-180.0,1111.0 
145.0,-194.0,1120.0 
71.0,-242.0,1146.0 
42.0,-208.0,1124.0 
61.0,-211.0,1107.0 
85.0,-198.0,1110.0 
102.0,-220.0,1098.0 
137.0,-216.0,1080.0 
151.0,-237.0,1094.0 
156.0,-241.0,1096.0 
175.0,-216.0,1080.0 
281.0,-278.0,1047.0 
204.0,-253.0,1069.0 
134.0,-216.0,1077.0 
140.0,-234.0,1083.0 
101.0,-237.0,1088.0 
115.0,-233.0,1097.0 
108.0,-253.0,1101.0 
115.0,-240.0,1123.0 
139.0,-242.0,1117.0 
169.0,-242.0,1112.0 
184.0,-261.0,1110.0 
189.0,-281.0,1111.0 
208.0,-304.0,1097.0 
202.0,-280.0,1081.0 
177.0,-255.0,1082.0 
155.0,-221.0,1068.0 
132.0,-225.0,1070.0 
139.0,-222.0,1077.0 
151.0,-221.0,1056.0 
195.0,-247.0,1096.0 
226.0,-270.0,1092.0 
243.0,-284.0,1086.0 
250.0,-289.0,1048.0 
249.0,-254.0,1110.0 
240.0,-253.0,1100.0 
255.0,-255.0,1087.0 
256.0,-263.0,1070.0 
256.0,-262.0,1057.0 
259.0,-261.0,1056.0 
270.0,-270.0,1051.0 
280.0,-280.0,1032.0 
261.0,-264.0,1061.0 
254.0,-280.0,1065.0 
257.0,-266.0,1058.0 
256.0,-272.0,1067.0 
265.0,-289.0,1067.0 
280.0,-290.0,1065.0 
299.0,-293.0,1072.0 
312.0,-304.0,1073.0 
303.0,-316.0,1073.0 
297.0,-315.0,1088.0 
301.0,-315.0,1079.0 
303.0,-321.0,1071.0 
304.0,-320.0,1056.0 
307.0,-320.0,1064.0 
294.0,-308.0,1050.0 
284.0,-297.0,1057.0 
278.0,-287.0,1069.0 
286.0,-312.0,1062.0 
307.0,-309.0,1059.0 
324.0,-322.0,1059.0 
323.0,-334.0,1068.0 
316.0,-322.0,1059.0 
315.0,-327.0,1054.0 
314.0,-320.0,1056.0 
311.0,-324.0,1059.0 
293.0,-304.0,1036.0 
292.0,-314.0,1045.0 
297.0,-300.0,1049.0 
301.0,-294.0,1040.0 
318.0,-302.0,1044.0 
333.0,-310.0,1042.0 
342.0,-322.0,1055.0 
333.0,-334.0,1044.0 
337.0,-334.0,1044.0 
333.0,-337.0,1051.0 
332.0,-337.0,1054.0 
324.0,-334.0,1055.0 
321.0,-332.0,1063.0 
323.0,-323.0,1053.0 
318.0,-322.0,1051.0 
318.0,-321.0,1053.0 
311.0,-329.0,1044.0 
296.0,-316.0,1050.0 
292.0,-306.0,1041.0 
289.0,-300.0,1048.0 
302.0,-307.0,1044.0 
316.0,-318.0,1048.0 
330.0,-320.0,1041.0 
337.0,-322.0,1034.0 
346.0,-328.0,1009.0 
296.0,-324.0,1055.0 
215.0,-292.0,1077.0 
228.0,-292.0,1075.0 
229.0,-294.0,1074.0 
233.0,-294.0,1075.0 
234.0,-293.0,1085.0 
231.0,-293.0,1077.0 
228.0,-290.0,1072.0 
227.0,-291.0,1078.0 
217.0,-285.0,1064.0 
209.0,-283.0,1068.0 
210.0,-287.0,1069.0 
216.0,-282.0,1071.0 
221.0,-282.0,1072.0 
222.0,-285.0,1074.0 
227.0,-286.0,1072.0 
226.0,-303.0,1071.0 
217.0,-288.0,1082.0 
221.0,-302.0,1080.0 
224.0,-284.0,1085.0 
218.0,-292.0,1086.0 
219.0,-294.0,1088.0 
227.0,-289.0,1082.0 
226.0,-291.0,1083.0 
229.0,-292.0,1084.0 
229.0,-291.0,1077.0 
225.0,-291.0,1085.0 
228.0,-288.0,1077.0 
230.0,-290.0,1081.0 
241.0,-290.0,1082.0 
244.0,-300.0,1088.0 
248.0,-301.0,1093.0 
241.0,-302.0,1094.0 
240.0,-294.0,1086.0 
240.0,-302.0,1089.0 
236.0,-290.0,1080.0 
229.0,-280.0,1086.0 
221.0,-283.0,1097.0 
226.0,-278.0,1081.0 
227.0,-281.0,1093.0 
208.0,-265.0,1086.0 
221.0,-264.0,1079.0 
215.0,-259.0,1087.0 
215.0,-267.0,1074.0 
198.0,-251.0,1080.0 
161.0,-271.0,1069.0 
212.0,-230.0,1078.0 
197.0,-236.0,1103.0 
183.0,-268.0,1119.0 
197.0,-251.0,1077.0 
186.0,-261.0,1103.0 
188.0,-252.0,1105.0 
184.0,-243.0,1084.0 
166.0,-242.0,1109.0 
162.0,-241.0,1103.0 
160.0,-227.0,1095.0 
156.0,-244.0,1113.0 
145.0,-231.0,1105.0 
142.0,-240.0,1089.0 
139.0,-230.0,1098.0 
136.0,-220.0,1090.0 
132.0,-212.0,1100.0 
126.0,-212.0,1114.0 
126.0,-212.0,1099.0 
115.0,-208.0,1106.0 
106.0,-210.0,1110.0 
111.0,-204.0,1112.0 
104.0,-194.0,1113.0 
98.0,-177.0,1102.0 
88.0,-181.0,1115.0 
81.0,-180.0,1108.0 
88.0,-173.0,1105.0 
88.0,-179.0,1102.0 
82.0,-176.0,1111.0 
86.0,-178.0,1105.0 
81.0,-178.0,1099.0 
61.0,-186.0,1121.0 
56.0,-187.0,1121.0 
67.0,-176.0,1115.0 
66.0,-167.0,1120.0 
64.0,-174.0,1130.0 
71.0,-175.0,1120.0 
60.0,-171.0,1123.0 
46.0,-155.0,1118.0 
45.0,-152.0,1122.0 
42.0,-152.0,1134.0 
43.0,-167.0,1118.0 
29.0,-166.0,1121.0 
23.0,-160.0,1120.0 
13.0,-162.0,1126.0 
-5.0,-141.0,1131.0 
-53.0,-164.0,1120.0 
0.0,-135.0,1110.0 
22.0,-133.0,1122.0 
-3.0,-135.0,1133.0 
-6.0,-134.0,1130.0 
-13.0,-146.0,1138.0 
-11.0,-146.0,1125.0 
-22.0,-146.0,1128.0 
-29.0,-138.0,1130.0 
-33.0,-132.0,1119.0 
-38.0,-117.0,1117.0 
-43.0,-108.0,1116.0 
-45.0,-110.0,1119.0 
-50.0,-106.0,1131.0 
-57.0,-98.0,1126.0 
-63.0,-106.0,1124.0 
-59.0,-97.0,1112.0 
-63.0,-94.0,1121.0 
-61.0,-89.0,1117.0 
-51.0,-86.0,1114.0 
-56.0,-81.0,1102.0 
-61.0,-83.0,1107.0 
-67.0,-84.0,1110.0 
-65.0,-71.0,1106.0 
-66.0,-78.0,1109.0 
-70.0,-77.0,1107.0 
-71.0,-87.0,1115.0 
-65.0,-95.0,1114.0 
-67.0,-88.0,1115.0 
-70.0,-92.0,1120.0 
-72.0,-106.0,1123.0 
-77.0,-99.0,1125.0 
-78.0,-101.0,1127.0 
-75.0,-97.0,1131.0 
-80.0,-93.0,1128.0 
-83.0,-95.0,1133.0 
-82.0,-93.0,1135.0 
-92.0,-104.0,1127.0 
-83.0,-111.0,1132.0 
-80.0,-106.0,1135.0 
-82.0,-105.0,1137.0 
-77.0,-104.0,1129.0 
-68.0,-105.0,1136.0 
-77.0,-95.0,1129.0 
-79.0,-91.0,1129.0 
-81.0,-79.0,1116.0 
-97.0,-75.0,1104.0 
-108.0,-81.0,1121.0 
-110.0,-60.0,1107.0 
-112.0,-64.0,1112.0 
-114.0,-67.0,1116.0 
-122.0,-58.0,1109.0 
-117.0,-66.0,1092.0 
-122.0,-60.0,1107.0 
-125.0,-52.0,1104.0 
-132.0,-56.0,1100.0 
-141.0,-61.0,1114.0 
-130.0,-61.0,1120.0 
-131.0,-72.0,1125.0 
-127.0,-80.0,1125.0 
-135.0,-65.0,1132.0 
-139.0,-73.0,1125.0 
-137.0,-66.0,1113.0 
-141.0,-72.0,1127.0 
-145.0,-63.0,1116.0 
-150.0,-63.0,1110.0 
-162.0,-43.0,1106.0 
-162.0,-54.0,1113.0 
-155.0,-46.0,1110.0 
-157.0,-42.0,1112.0 
-150.0,-49.0,1116.0 
-147.0,-47.0,1114.0 
-150.0,-52.0,1112.0 
-155.0,-49.0,1122.0 
-146.0,-42.0,1112.0 
-136.0,-40.0,1108.0 
-173.0,-39.0,1120.0 
-156.0,-48.0,1118.0 
-153.0,-41.0,1111.0 
-156.0,-45.0,1104.0 
-158.0,-36.0,1114.0 
-164.0,-40.0,1110.0 
-176.0,-32.0,1114.0 
-178.0,-30.0,1113.0 
-180.0,-27.0,1120.0 
-184.0,-25.0,1114.0 
-181.0,-23.0,1113.0 
-175.0,-29.0,1105.0 
-174.0,-27.0,1109.0 
-175.0,-16.0,1105.0 
-180.0,-12.0,1105.0 
-186.0,-4.0,1094.0 
-190.0,-2.0,1101.0 
-201.0,4.0,1087.0 
-199.0,6.0,1092.0 
-202.0,9.0,1100.0 
-202.0,16.0,1089.0 
-202.0,14.0,1092.0 
-218.0,13.0,1092.0 
-236.0,-1.0,1101.0 
-231.0,11.0,1091.0 
-231.0,2.0,1097.0 
-233.0,10.0,1096.0 
-237.0,16.0,1099.0 
-233.0,19.0,1110.0 
-235.0,-6.0,1095.0 
-223.0,3.0,1089.0 
-229.0,5.0,1096.0 
-235.0,-4.0,1108.0 
-245.0,6.0,1100.0 
-172.0,-24.0,1104.0 
-177.0,-29.0,1097.0 
-190.0,-32.0,1103.0 
-184.0,-31.0,1103.0 
-178.0,-30.0,1104.0 
-180.0,-23.0,1121.0 
-181.0,-22.0,1100.0 
-170.0,-26.0,1100.0 
-171.0,-13.0,1080.0 
-163.0,-34.0,1093.0 
-170.0,-10.0,1095.0 
-180.0,-10.0,1083.0 
-173.0,-43.0,1113.0 
-178.0,-24.0,1090.0 
-151.0,-35.0,1104.0 
-154.0,-26.0,1108.0 
-155.0,-50.0,1119.0 
-158.0,-57.0,1126.0 
-153.0,-69.0,1130.0 
-140.0,-73.0,1133.0 
-161.0,-85.0,1135.0 
-169.0,-84.0,1137.0 
-175.0,-83.0,1134.0 
-174.0,-66.0,1133.0 
-169.0,-57.0,1104.0 
-173.0,-27.0,1129.0 
-171.0,-49.0,1133.0 
-152.0,-58.0,1136.0 
-149.0,-53.0,1110.0 
-109.0,-46.0,1122.0 
-107.0,-49.0,1101.0 
-123.0,-26.0,1107.0 
-163.0,-23.0,1119.0 
-135.0,-42.0,1125.0 
-149.0,-21.0,1104.0 
-162.0,-6.0,1090.0 
-133.0,7.0,1092.0 
-152.0,-5.0,1109.0 
-158.0,-40.0,1134.0 
-143.0,-61.0,1131.0 
-148.0,-36.0,1120.0 
-144.0,-39.0,1118.0 
-145.0,-34.0,1118.0 
-139.0,-27.0,1109.0 
-140.0,-17.0,1128.0 
-112.0,-31.0,1096.0 
-109.0,-17.0,1124.0 
-108.0,-24.0,1116.0 
-90.0,-46.0,1130.0 
-104.0,-65.0,1135.0 
-90.0,-69.0,1124.0 
-65.0,-27.0,1112.0 
-70.0,-22.0,1107.0 
-74.0,-5.0,1120.0 
-61.0,-11.0,1110.0 
-71.0,-7.0,1124.0 
-70.0,-7.0,1126.0 
-59.0,-20.0,1119.0 
-57.0,-44.0,1151.0 
-59.0,-87.0,1163.0 
-22.0,-65.0,1141.0 
3.0,-45.0,1112.0 
-8.0,-18.0,1110.0 
-5.0,-17.0,1122.0 
-7.0,6.0,1084.0 
-22.0,-9.0,1102.0 
-34.0,-6.0,1111.0 
-34.0,-4.0,1108.0 
-27.0,-10.0,1108.0 
-29.0,-45.0,1138.0 
9.0,-64.0,1148.0 
2.0,-79.0,1147.0 
-4.0,-61.0,1151.0 
20.0,-42.0,1128.0 
5.0,-48.0,1129.0 
19.0,-38.0,1122.0 
12.0,-37.0,1120.0 
11.0,-31.0,1118.0 
23.0,-36.0,1116.0 
21.0,-39.0,1122.0 
43.0,-50.0,1111.0 
53.0,-48.0,1131.0 
47.0,-75.0,1128.0 
48.0,-69.0,1125.0 
44.0,-57.0,1114.0 
38.0,-47.0,1110.0 
16.0,-30.0,1108.0 
2.0,-29.0,1114.0 
0.0,-32.0,1098.0 
-4.0,-59.0,1107.0 
24.0,-31.0,1107.0 
75.0,-25.0,1094.0 
101.0,-39.0,1101.0 
97.0,-88.0,1125.0 
68.0,-107.0,1142.0 
54.0,-103.0,1136.0 
61.0,-109.0,1146.0 
73.0,-83.0,1126.0 
63.0,-83.0,1125.0 
75.0,-89.0,1139.0 
114.0,-67.0,1098.0 
80.0,-98.0,1133.0 
93.0,-86.0,1134.0 
92.0,-78.0,1124.0 
94.0,-92.0,1119.0 
114.0,-97.0,1117.0 
114.0,-107.0,1124.0 
131.0,-115.0,1133.0 
136.0,-123.0,1133.0 
156.0,-117.0,1125.0 
133.0,-129.0,1133.0 
108.0,-153.0,1136.0 
156.0,-126.0,1116.0 
158.0,-134.0,1133.0 
152.0,-153.0,1144.0 
153.0,-166.0,1147.0 
161.0,-171.0,1159.0 
163.0,-160.0,1148.0 
158.0,-149.0,1147.0 
157.0,-154.0,1136.0 
149.0,-156.0,1145.0 
137.0,-145.0,1139.0 
139.0,-151.0,1136.0 
143.0,-143.0,1130.0 
148.0,-135.0,1112.0 
157.0,-138.0,1107.0 
144.0,-134.0,1117.0 
162.0,-175.0,1116.0 
165.0,-188.0,1140.0 
178.0,-168.0,1116.0 
170.0,-152.0,1109.0 
163.0,-157.0,1104.0 
141.0,-146.0,1104.0 
144.0,-132.0,1104.0 
127.0,-118.0,1117.0 
153.0,-133.0,1086.0 
137.0,-121.0,1097.0 
159.0,-135.0,1078.0 
176.0,-131.0,1109.0 
168.0,-180.0,1138.0 
167.0,-207.0,1117.0 
167.0,-221.0,1130.0 
169.0,-215.0,1124.0 
184.0,-194.0,1118.0 
196.0,-198.0,1111.0 
199.0,-193.0,1115.0 
202.0,-187.0,1088.0 
190.0,-174.0,1097.0 
190.0,-172.0,1094.0 
171.0,-190.0,1109.0 
172.0,-186.0,1108.0 
195.0,-187.0,1108.0 
205.0,-219.0,1110.0 
194.0,-232.0,1129.0 
204.0,-262.0,1132.0 
230.0,-250.0,1126.0 
248.0,-250.0,1120.0 
244.0,-231.0,1118.0 
225.0,-211.0,1086.0 
170.0,-173.0,1078.0 
162.0,-184.0,1088.0 
165.0,-178.0,1068.0 
172.0,-157.0,1061.0 
247.0,-175.0,1057.0 
252.0,-210.0,1074.0 
252.0,-241.0,1093.0 
254.0,-264.0,1106.0 
271.0,-258.0,1096.0 
239.0,-287.0,1099.0 
213.0,-293.0,1123.0 
245.0,-282.0,1116.0 
258.0,-282.0,1123.0 
255.0,-292.0,1128.0 
251.0,-287.0,1117.0 
244.0,-257.0,1114.0 
226.0,-253.0,1112.0 
201.0,-251.0,1102.0 
195.0,-254.0,1104.0 
198.0,-257.0,1100.0 
220.0,-252.0,1102.0 
223.0,-256.0,1094.0 
229.0,-256.0,1095.0 
255.0,-247.0,1090.0 
232.0,-249.0,1085.0 
227.0,-246.0,1088.0 
229.0,-248.0,1090.0 
218.0,-236.0,1085.0 
214.0,-238.0,1066.0 
211.0,-230.0,1092.0 
195.0,-224.0,1082.0 
194.0,-226.0,1078.0 
208.0,-223.0,1081.0 
220.0,-225.0,1083.0 
219.0,-234.0,1082.0 
217.0,-237.0,1085.0 
223.0,-239.0,1084.0 
220.0,-235.0,1088.0 
214.0,-238.0,1086.0 
218.0,-243.0,1093.0 
229.0,-249.0,1084.0 
390.0,-417.0,971.0 
385.0,-421.0,968.0 
390.0,-429.0,976.0 
393.0,-434.0,980.0 
396.0,-434.0,972.0 
399.0,-437.0,978.0 
402.0,-433.0,982.0 
400.0,-431.0,969.0 
394.0,-435.0,971.0 
392.0,-433.0,973.0 
387.0,-432.0,969.0 
384.0,-426.0,963.0 
383.0,-423.0,980.0 
377.0,-427.0,983.0 
384.0,-433.0,988.0 
394.0,-427.0,981.0 
403.0,-415.0,973.0 
411.0,-423.0,970.0 
406.0,-422.0,971.0 
410.0,-416.0,966.0 
407.0,-402.0,965.0 
394.0,-435.0,997.0 
384.0,-397.0,969.0 
392.0,-418.0,959.0 
386.0,-422.0,975.0 
389.0,-419.0,971.0 
406.0,-423.0,969.0 
406.0,-418.0,964.0 
399.0,-409.0,971.0 
382.0,-410.0,968.0 
384.0,-412.0,971.0 
383.0,-419.0,978.0 
392.0,-423.0,981.0 
396.0,-419.0,972.0 
396.0,-426.0,972.0 
400.0,-427.0,990.0 
399.0,-424.0,979.0 
394.0,-423.0,977.0 
390.0,-421.0,978.0 
393.0,-419.0,991.0 
395.0,-429.0,983.0 
359.0,-416.0,964.0 
399.0,-432.0,977.0 
392.0,-406.0,982.0 
391.0,-423.0,986.0 
378.0,-421.0,970.0 
401.0,-417.0,989.0 
401.0,-407.0,974.0 
388.0,-416.0,973.0 
386.0,-413.0,978.0 
387.0,-418.0,975.0 
376.0,-414.0,970.0 
365.0,-418.0,980.0 
376.0,-420.0,984.0 
377.0,-418.0,981.0 
374.0,-409.0,974.0 
385.0,-403.0,986.0 
389.0,-407.0,983.0 
384.0,-409.0,985.0 
360.0,-439.0,990.0 
382.0,-402.0,979.0 
387.0,-410.0,971.0 
378.0,-407.0,988.0 
379.0,-419.0,982.0 
382.0,-425.0,986.0 
392.0,-425.0,983.0 
395.0,-425.0,984.0 
395.0,-416.0,988.0 
387.0,-413.0,987.0 
371.0,-405.0,983.0 
364.0,-403.0,984.0 
365.0,-408.0,992.0 
368.0,-412.0,998.0 
369.0,-422.0,999.0 
369.0,-453.0,1025.0 
387.0,-422.0,991.0 
398.0,-420.0,983.0 
393.0,-413.0,994.0 
381.0,-388.0,973.0 
371.0,-395.0,986.0 
363.0,-390.0,988.0 
366.0,-393.0,993.0 
368.0,-398.0,999.0 
376.0,-408.0,994.0 
379.0,-411.0,1009.0 
371.0,-408.0,997.0 
361.0,-408.0,1011.0 
346.0,-416.0,1004.0 
340.0,-397.0,1000.0 
341.0,-399.0,1006.0 
334.0,-396.0,1014.0 
338.0,-400.0,1023.0 
336.0,-399.0,1019.0 
337.0,-405.0,1021.0 
331.0,-404.0,1016.0 
326.0,-412.0,1023.0 
337.0,-416.0,1021.0 
332.0,-403.0,1038.0 
327.0,-405.0,1036.0 
331.0,-396.0,1032.0 
328.0,-385.0,1028.0 
310.0,-369.0,1031.0 
294.0,-368.0,1021.0 
279.0,-362.0,1025.0 
274.0,-379.0,1019.0 
275.0,-361.0,1033.0 
268.0,-367.0,1047.0 
269.0,-367.0,1042.0 
276.0,-357.0,1037.0 
277.0,-344.0,1047.0 
269.0,-350.0,1033.0 
274.0,-348.0,1018.0 
259.0,-337.0,1030.0 
226.0,-341.0,1034.0 
223.0,-339.0,1040.0 
226.0,-337.0,1046.0 
223.0,-337.0,1048.0 
227.0,-326.0,1051.0 
230.0,-325.0,1052.0 
224.0,-339.0,1062.0 
220.0,-330.0,1051.0 
200.0,-320.0,1048.0 
197.0,-313.0,1049.0 
198.0,-312.0,1063.0 
202.0,-319.0,1057.0 
202.0,-323.0,1055.0 
168.0,-358.0,1077.0 
205.0,-314.0,1047.0 
204.0,-320.0,1074.0 
175.0,-323.0,1069.0 
175.0,-315.0,1071.0 
174.0,-326.0,1077.0 
176.0,-332.0,1094.0 
161.0,-311.0,1070.0 
172.0,-334.0,1074.0 
180.0,-323.0,1081.0 
177.0,-320.0,1070.0 
175.0,-319.0,1075.0 
173.0,-316.0,1073.0 
167.0,-309.0,1066.0 
153.0,-305.0,1067.0 
142.0,-302.0,1070.0 
139.0,-291.0,1066.0 
133.0,-291.0,1076.0 
140.0,-298.0,1071.0 
148.0,-301.0,1083.0 
141.0,-297.0,1083.0 
158.0,-302.0,1082.0 
154.0,-305.0,1086.0 
160.0,-293.0,1077.0 
156.0,-282.0,1067.0 
148.0,-284.0,1072.0 
132.0,-282.0,1078.0 
120.0,-273.0,1085.0 
122.0,-281.0,1071.0 
123.0,-289.0,1076.0 
122.0,-280.0,1082.0 
125.0,-291.0,1088.0 
123.0,-288.0,1089.0 
128.0,-291.0,1092.0 
117.0,-291.0,1099.0 
129.0,-310.0,1134.0 
64.0,-263.0,1112.0 
116.0,-323.0,1094.0 
114.0,-300.0,1102.0 
112.0,-286.0,1093.0 
101.0,-294.0,1103.0 
80.0,-283.0,1097.0 
78.0,-281.0,1101.0 
85.0,-270.0,1091.0 
75.0,-269.0,1095.0 
69.0,-255.0,1094.0 
66.0,-247.0,1092.0 
59.0,-244.0,1082.0 
41.0,-247.0,1095.0 
32.0,-244.0,1096.0 
31.0,-248.0,1093.0 
32.0,-255.0,1101.0 
39.0,-256.0,1114.0 
50.0,-273.0,1118.0 
57.0,-255.0,1116.0 
52.0,-269.0,1115.0 
69.0,-243.0,1106.0 
37.0,-248.0,1108.0 
32.0,-246.0,1101.0 
26.0,-242.0,1092.0 
23.0,-228.0,1096.0 
8.0,-251.0,1106.0 
12.0,-237.0,1108.0 
8.0,-238.0,1097.0 
5.0,-237.0,1103.0 
11.0,-227.0,1093.0 
16.0,-232.0,1106.0 
12.0,-231.0,1113.0 
12.0,-238.0,1108.0 
9.0,-237.0,1111.0 
10.0,-233.0,1109.0 
11.0,-237.0,1106.0 
16.0,-229.0,1092.0 
15.0,-226.0,1089.0 
38.0,-104.0,1169.0 
33.0,-110.0,1160.0 
42.0,-117.0,1180.0 
53.0,-127.0,1178.0 
73.0,-138.0,1184.0 
92.0,-137.0,1187.0 
94.0,-140.0,1193.0 
87.0,-135.0,1194.0 
83.0,-130.0,1185.0 
48.0,-120.0,1187.0 
49.0,-127.0,1188.0 
46.0,-124.0,1178.0 
42.0,-121.0,1167.0 
67.0,-100.0,1155.0 
72.0,-93.0,1142.0 
64.0,-82.0,1129.0 
61.0,-81.0,1123.0 
51.0,-80.0,1111.0 
57.0,-79.0,1111.0 
61.0,-78.0,1103.0 
61.0,-76.0,1109.0 
67.0,-78.0,1105.0 
63.0,-78.0,1096.0 
64.0,-83.0,1102.0 
78.0,-84.0,1105.0 
97.0,-84.0,1074.0 
105.0,-87.0,1095.0 
115.0,-86.0,1094.0 
111.0,-82.0,1089.0 
86.0,-73.0,1079.0 
84.0,-68.0,1082.0 
80.0,-59.0,1095.0 
72.0,-63.0,1091.0 
74.0,-81.0,1087.0 
86.0,-75.0,1097.0 
110.0,-86.0,1077.0 
130.0,-95.0,1097.0 
153.0,-33.0,1059.0 
113.0,-55.0,1090.0 
82.0,-56.0,1087.0 
68.0,-60.0,1106.0 
