ax,ay,az
6.0,119.0,1144.0 
8.0,119.0,1140.0 
8.0,107.0,1125.0 
5.0,105.0,1129.0 
1.0,106.0,1119.0 
1.0,115.0,1115.0 
-7.0,115.0,1131.0 
-2.0,139.0,1140.0 
-4.0,149.0,1151.0 
-9.0,152.0,1151.0 
-1.0,147.0,1154.0 
-1.0,136.0,1151.0 
5.0,135.0,1149.0 
3.0,121.0,1144.0 
8.0,118.0,1154.0 
8.0,109.0,1144.0 
-1.0,107.0,1131.0 
-4.0,107.0,1124.0 
13.0,129.0,1129.0 
0.0,136.0,1136.0 
13.0,143.0,1132.0 
4.0,147.0,1132.0 
0.0,151.0,1133.0 
2.0,145.0,1135.0 
-4.0,141.0,1138.0 
-6.0,141.0,1126.0 
-22.0,140.0,1117.0 
-33.0,139.0,1117.0 
-40.0,143.0,1116.0 
-45.0,154.0,1130.0 
-60.0,153.0,1141.0 
-65.0,153.0,1140.0 
-74.0,163.0,1144.0 
-87.0,202.0,1144.0 
-113.0,189.0,1116.0 
-119.0,234.0,1116.0 
-115.0,248.0,1116.0 
-130.0,253.0,1093.0 
-130.0,225.0,1062.0 
-140.0,195.0,1038.0 
-148.0,198.0,1022.0 
-152.0,163.0,979.0 
-150.0,139.0,956.0 
-151.0,137.0,925.0 
-142.0,139.0,920.0 
-90.0,146.0,926.0 
-50.0,157.0,929.0 
-20.0,161.0,932.0 
-11.0,142.0,901.0 
-47.0,105.0,852.0 
-59.0,101.0,840.0 
-75.0,110.0,822.0 
-68.0,111.0,852.0 
-79.0,97.0,846.0 
-49.0,85.0,860.0 
-12.0,89.0,882.0 
18.0,48.0,854.0 
43.0,-9.0,838.0 
46.0,-24.0,826.0 
45.0,-55.0,826.0 
22.0,-76.0,829.0 
15.0,-26.0,877.0 
4.0,20.0,926.0 
9.0,81.0,980.0 
10.0,101.0,1036.0 
6.0,93.0,1035.0 
52.0,64.0,1025.0 
79.0,-4.0,1036.0 
97.0,-96.0,1023.0 
60.0,-164.0,1026.0 
63.0,-177.0,1043.0 
74.0,-157.0,1082.0 
117.0,-130.0,1250.0 
129.0,-110.0,1314.0 
135.0,-67.0,1313.0 
108.0,-101.0,1313.0 
22.0,-73.0,1180.0 
25.0,-52.0,1129.0 
9.0,-45.0,1118.0 
11.0,-87.0,1156.0 
29.0,-152.0,1210.0 
32.0,-211.0,1249.0 
63.0,-238.0,1265.0 
62.0,-266.0,1291.0 
110.0,-210.0,1293.0 
112.0,-150.0,1310.0 
76.0,-86.0,1324.0 
30.0,-37.0,1385.0 
-16.0,-3.0,1395.0 
-87.0,-47.0,1380.0 
-140.0,-114.0,1393.0 
-138.0,-129.0,1504.0 
-31.0,-156.0,1545.0 
-33.0,-196.0,1583.0 
5.0,-173.0,1621.0 
36.0,-120.0,1586.0 
6.0,-116.0,1530.0 
-46.0,-136.0,1489.0 
-110.0,-142.0,1426.0 
-144.0,-178.0,1353.0 
-147.0,-160.0,1328.0 
-123.0,-163.0,1332.0 
-85.0,-148.0,1357.0 
-33.0,-163.0,1327.0 
-18.0,-129.0,1313.0 
-16.0,-125.0,1299.0 
-31.0,-107.0,1311.0 
-102.0,-108.0,1268.0 
-115.0,-113.0,1270.0 
-115.0,-151.0,1245.0 
-96.0,-152.0,1227.0 
-72.0,-173.0,1209.0 
-56.0,-163.0,1221.0 
-11.0,-141.0,1238.0 
11.0,-120.0,1266.0 
20.0,-88.0,1283.0 
-10.0,-71.0,1275.0 
-55.0,-58.0,1259.0 
-109.0,-49.0,1234.0 
-125.0,3.0,1248.0 
-104.0,2.0,1270.0 
-83.0,19.0,1293.0 
-82.0,-23.0,1290.0 
-73.0,-27.0,1277.0 
-78.0,-43.0,1275.0 
-90.0,-48.0,1254.0 
-97.0,-53.0,1255.0 
-120.0,-43.0,1270.0 
-128.0,-26.0,1287.0 
-127.0,6.0,1297.0 
-148.0,51.0,1276.0 
-210.0,59.0,1225.0 
-200.0,71.0,1240.0 
-173.0,90.0,1265.0 
-144.0,31.0,1266.0 
-135.0,13.0,1230.0 
-164.0,11.0,1195.0 
-180.0,-10.0,1137.0 
-192.0,12.0,1147.0 
-206.0,23.0,1164.0 
-203.0,49.0,1194.0 
-199.0,71.0,1181.0 
-229.0,102.0,1174.0 
-212.0,92.0,1175.0 
-194.0,77.0,1169.0 
-179.0,43.0,1117.0 
-148.0,11.0,1086.0 
-146.0,10.0,1053.0 
-151.0,5.0,1042.0 
-161.0,42.0,1070.0 
-142.0,59.0,1109.0 
-157.0,65.0,1118.0 
-180.0,75.0,1101.0 
-180.0,92.0,1068.0 
-132.0,74.0,1058.0 
-122.0,74.0,1027.0 
-110.0,81.0,1026.0 
-83.0,93.0,1051.0 
-103.0,102.0,1044.0 
-121.0,94.0,1032.0 
-133.0,95.0,1027.0 
-93.0,126.0,1048.0 
-68.0,129.0,1042.0 
-72.0,120.0,1017.0 
-79.0,106.0,1011.0 
-70.0,79.0,1003.0 
-92.0,63.0,980.0 
-85.0,67.0,979.0 
-59.0,80.0,983.0 
-28.0,75.0,975.0 
0.0,81.0,979.0 
9.0,88.0,960.0 
11.0,82.0,914.0 
2.0,75.0,923.0 
15.0,89.0,932.0 
6.0,110.0,922.0 
-3.0,130.0,908.0 
0.0,145.0,898.0 
12.0,167.0,889.0 
31.0,161.0,889.0 
34.0,158.0,878.0 
40.0,146.0,904.0 
81.0,152.0,948.0 
101.0,145.0,961.0 
115.0,158.0,998.0 
132.0,143.0,1005.0 
148.0,117.0,1008.0 
145.0,86.0,1001.0 
141.0,31.0,982.0 
170.0,1.0,985.0 
189.0,-22.0,985.0 
217.0,-20.0,1006.0 
278.0,-4.0,1118.0 
302.0,10.0,1154.0 
304.0,12.0,1165.0 
313.0,0.0,1152.0 
299.0,2.0,1160.0 
290.0,7.0,1182.0 
268.0,14.0,1204.0 
244.0,8.0,1172.0 
46.0,87.0,1142.0 
13.0,92.0,1119.0 
10.0,85.0,1113.0 
-12.0,105.0,1092.0 
-16.0,120.0,1086.0 
-13.0,120.0,1094.0 
0.0,136.0,1126.0 
11.0,143.0,1128.0 
8.0,142.0,1122.0 
36.0,127.0,1093.0 
-19.0,116.0,1111.0 
-10.0,100.0,1116.0 
-7.0,96.0,1112.0 
-19.0,95.0,1109.0 
-38.0,124.0,1109.0 
-39.0,133.0,1117.0 
-21.0,150.0,1131.0 
-20.0,141.0,1118.0 
-25.0,112.0,1066.0 
-34.0,95.0,1034.0 
-38.0,92.0,1025.0 
-39.0,97.0,1048.0 
-37.0,114.0,1066.0 
-38.0,112.0,1068.0 
-44.0,119.0,1048.0 
-50.0,139.0,1028.0 
-73.0,152.0,987.0 
-92.0,137.0,946.0 
-115.0,139.0,902.0 
-76.0,125.0,835.0 
-47.0,88.0,851.0 
4.0,54.0,861.0 
22.0,49.0,850.0 
36.0,35.0,864.0 
71.0,58.0,874.0 
40.0,46.0,857.0 
5.0,32.0,842.0 
21.0,47.0,800.0 
2.0,43.0,830.0 
19.0,18.0,802.0 
30.0,-1.0,781.0 
86.0,-31.0,788.0 
207.0,-10.0,832.0 
214.0,-19.0,879.0 
180.0,-44.0,900.0 
130.0,-42.0,983.0 
77.0,-16.0,1007.0 
36.0,6.0,1044.0 
34.0,34.0,1071.0 
15.0,36.0,1040.0 
44.0,26.0,1028.0 
80.0,11.0,1019.0 
100.0,-28.0,1035.0 
176.0,-100.0,1109.0 
144.0,-144.0,1129.0 
88.0,-204.0,1089.0 
33.0,-233.0,1073.0 
54.0,-167.0,1128.0 
70.0,-120.0,1178.0 
80.0,-89.0,1246.0 
91.0,-66.0,1281.0 
85.0,-31.0,1256.0 
61.0,-70.0,1215.0 
22.0,-152.0,1145.0 
4.0,-220.0,1177.0 
25.0,-349.0,1219.0 
58.0,-358.0,1263.0 
123.0,-343.0,1358.0 
180.0,-297.0,1447.0 
178.0,-273.0,1479.0 
146.0,-235.0,1448.0 
72.0,-208.0,1394.0 
-20.0,-189.0,1347.0 
-109.0,-214.0,1379.0 
-109.0,-274.0,1461.0 
-84.0,-309.0,1508.0 
-52.0,-335.0,1536.0 
12.0,-349.0,1559.0 
35.0,-326.0,1556.0 
55.0,-327.0,1538.0 
30.0,-271.0,1496.0 
-28.0,-245.0,1467.0 
-90.0,-215.0,1443.0 
-147.0,-233.0,1404.0 
-177.0,-252.0,1393.0 
-153.0,-275.0,1387.0 
-127.0,-310.0,1366.0 
-93.0,-319.0,1371.0 
-48.0,-335.0,1395.0 
-19.0,-302.0,1431.0 
-48.0,-254.0,1512.0 
-69.0,87.0,1442.0 
-198.0,-49.0,1418.0 
-234.0,-128.0,1342.0 
-200.0,-226.0,1275.0 
-210.0,-217.0,1211.0 
-54.0,-254.0,1233.0 
-11.0,-273.0,1231.0 
-48.0,-279.0,1391.0 
-131.0,-135.0,1296.0 
-261.0,-64.0,1296.0 
-277.0,31.0,1348.0 
-262.0,93.0,1408.0 
-236.0,102.0,1419.0 
-175.0,84.0,1380.0 
-156.0,13.0,1350.0 
-157.0,-38.0,1296.0 
-184.0,-183.0,1143.0 
-176.0,-187.0,1133.0 
-169.0,-192.0,1162.0 
-128.0,-171.0,1237.0 
-110.0,-92.0,1319.0 
-141.0,-51.0,1313.0 
-195.0,-9.0,1303.0 
-231.0,44.0,1268.0 
-301.0,77.0,1257.0 
-326.0,49.0,1216.0 
-280.0,43.0,1205.0 
-233.0,13.0,1192.0 
-187.0,-72.0,1141.0 
-143.0,-64.0,1137.0 
-122.0,-53.0,1128.0 
-144.0,-31.0,1100.0 
-186.0,16.0,1113.0 
-211.0,40.0,1122.0 
-239.0,33.0,1115.0 
-228.0,52.0,1127.0 
-209.0,46.0,1104.0 
-192.0,53.0,1069.0 
-178.0,58.0,1042.0 
-181.0,33.0,987.0 
-204.0,43.0,999.0 
-166.0,47.0,1032.0 
-153.0,46.0,1028.0 
-130.0,16.0,990.0 
-124.0,4.0,967.0 
-98.0,23.0,967.0 
-83.0,23.0,952.0 
-80.0,71.0,951.0 
-108.0,72.0,932.0 
-124.0,84.0,922.0 
-127.0,98.0,938.0 
-96.0,124.0,946.0 
-94.0,108.0,932.0 
-93.0,67.0,917.0 
-71.0,36.0,891.0 
-20.0,2.0,892.0 
10.0,28.0,899.0 
14.0,6.0,887.0 
37.0,22.0,877.0 
44.0,80.0,899.0 
49.0,99.0,901.0 
41.0,119.0,914.0 
30.0,144.0,905.0 
27.0,141.0,927.0 
32.0,123.0,927.0 
42.0,107.0,913.0 
86.0,53.0,914.0 
121.0,48.0,887.0 
108.0,60.0,907.0 
110.0,65.0,905.0 
111.0,77.0,980.0 
156.0,85.0,1006.0 
187.0,63.0,1025.0 
213.0,55.0,1019.0 
257.0,-6.0,1003.0 
299.0,-47.0,995.0 
298.0,-73.0,987.0 
335.0,-80.0,1050.0 
346.0,-102.0,1103.0 
337.0,-99.0,1108.0 
306.0,-99.0,1099.0 
275.0,-105.0,1111.0 
252.0,-81.0,1153.0 
268.0,-59.0,1201.0 
279.0,-31.0,1244.0 
284.0,-7.0,1320.0 
269.0,30.0,1329.0 
244.0,29.0,1295.0 
231.0,-13.0,1270.0 
212.0,-40.0,1169.0 
217.0,-133.0,1146.0 
228.0,-143.0,1150.0 
242.0,-147.0,1170.0 
234.0,-125.0,1164.0 
202.0,-111.0,1168.0 
194.0,-83.0,1164.0 
194.0,-48.0,1158.0 
169.0,-1.0,1199.0 
134.0,-9.0,1208.0 
127.0,1.0,1190.0 
104.0,-7.0,1157.0 
106.0,-24.0,1147.0 
121.0,-38.0,1143.0 
118.0,-43.0,1131.0 
117.0,-51.0,1120.0 
143.0,-36.0,1134.0 
146.0,-28.0,1161.0 
148.0,-24.0,1161.0 
121.0,-16.0,1148.0 
-51.0,-169.0,1185.0 
-29.0,-194.0,1165.0 
-20.0,-225.0,1164.0 
-14.0,-240.0,1162.0 
-51.0,-240.0,1174.0 
-60.0,-215.0,1185.0 
-68.0,-191.0,1216.0 
-51.0,-181.0,1238.0 
-35.0,-145.0,1241.0 
-49.0,-131.0,1200.0 
-78.0,-135.0,1157.0 
-87.0,-150.0,1138.0 
-109.0,-181.0,1146.0 
-129.0,-207.0,1150.0 
-121.0,-190.0,1189.0 
-111.0,-144.0,1256.0 
-83.0,-137.0,1274.0 
-68.0,-130.0,1295.0 
-31.0,-146.0,1258.0 
-41.0,-164.0,1186.0 
-69.0,-191.0,1152.0 
-85.0,-208.0,1143.0 
-103.0,-220.0,1130.0 
-129.0,-242.0,1122.0 
-116.0,-230.0,1148.0 
-94.0,-225.0,1178.0 
-65.0,-207.0,1199.0 
-10.0,-173.0,1223.0 
-30.0,-167.0,1195.0 
-76.0,-174.0,1182.0 
-75.0,-178.0,1206.0 
-75.0,-197.0,1226.0 
-84.0,-210.0,1195.0 
-88.0,-247.0,1185.0 
-83.0,-248.0,1225.0 
-49.0,-213.0,1268.0 
-23.0,-201.0,1299.0 
-20.0,-194.0,1307.0 
-19.0,-192.0,1277.0 
-36.0,-220.0,1269.0 
-46.0,-236.0,1251.0 
-60.0,-244.0,1241.0 
-68.0,-280.0,1136.0 
-106.0,-113.0,1260.0 
-86.0,-157.0,1200.0 
-60.0,-181.0,1239.0 
-17.0,-224.0,1296.0 
-9.0,-252.0,1259.0 
-68.0,-241.0,1211.0 
-116.0,-220.0,1172.0 
-135.0,-136.0,1223.0 
-133.0,-120.0,1252.0 
-129.0,-94.0,1274.0 
-134.0,-82.0,1287.0 
-130.0,-107.0,1277.0 
-121.0,-132.0,1253.0 
-110.0,-127.0,1218.0 
-135.0,-154.0,1170.0 
-147.0,-175.0,1189.0 
-140.0,-146.0,1232.0 
-150.0,-139.0,1254.0 
-165.0,-122.0,1239.0 
-182.0,-82.0,1257.0 
-185.0,-71.0,1261.0 
-201.0,-48.0,1256.0 
-222.0,-62.0,1225.0 
-244.0,-75.0,1216.0 
-244.0,-71.0,1185.0 
-243.0,-54.0,1190.0 
-232.0,-22.0,1207.0 
-225.0,-9.0,1225.0 
-251.0,-1.0,1230.0 
-262.0,25.0,1248.0 
-280.0,20.0,1215.0 
-322.0,10.0,1193.0 
-314.0,34.0,1202.0 
-272.0,22.0,1185.0 
-292.0,-4.0,1208.0 
-273.0,1.0,1206.0 
-276.0,9.0,1188.0 
-279.0,30.0,1185.0 
-296.0,60.0,1161.0 
-290.0,42.0,1108.0 
-302.0,72.0,1129.0 
-303.0,65.0,1138.0 
-272.0,122.0,1143.0 
-291.0,52.0,1126.0 
-279.0,63.0,1111.0 
-257.0,88.0,1069.0 
-228.0,74.0,1090.0 
-205.0,89.0,1093.0 
-213.0,86.0,1097.0 
-233.0,95.0,1084.0 
-256.0,88.0,1081.0 
-238.0,98.0,1074.0 
-227.0,101.0,1065.0 
-211.0,96.0,1023.0 
-171.0,98.0,1000.0 
-150.0,119.0,1001.0 
-141.0,104.0,1002.0 
-147.0,137.0,995.0 
-144.0,129.0,979.0 
-141.0,148.0,963.0 
-149.0,148.0,941.0 
-150.0,146.0,896.0 
-123.0,150.0,880.0 
-85.0,145.0,849.0 
-32.0,157.0,877.0 
2.0,129.0,873.0 
11.0,126.0,867.0 
21.0,124.0,883.0 
22.0,136.0,904.0 
46.0,149.0,911.0 
65.0,153.0,911.0 
98.0,156.0,899.0 
117.0,149.0,894.0 
144.0,126.0,868.0 
166.0,108.0,872.0 
172.0,102.0,868.0 
174.0,81.0,820.0 
163.0,55.0,809.0 
175.0,60.0,803.0 
200.0,70.0,842.0 
221.0,91.0,941.0 
244.0,163.0,996.0 
239.0,183.0,1019.0 
249.0,193.0,1038.0 
248.0,158.0,1049.0 
228.0,121.0,1046.0 
213.0,76.0,1032.0 
208.0,32.0,1022.0 
206.0,-36.0,997.0 
242.0,-53.0,989.0 
242.0,-90.0,944.0 
275.0,-76.0,959.0 
323.0,-18.0,974.0 
326.0,22.0,963.0 
334.0,61.0,950.0 
300.0,63.0,931.0 
203.0,60.0,843.0 
138.0,30.0,821.0 
149.0,47.0,812.0 
118.0,18.0,813.0 
159.0,12.0,833.0 
214.0,16.0,847.0 
247.0,18.0,847.0 
274.0,30.0,918.0 
310.0,40.0,946.0 
290.0,45.0,948.0 
262.0,48.0,988.0 
216.0,51.0,982.0 
145.0,-5.0,999.0 
168.0,16.0,1012.0 
156.0,2.0,1021.0 
178.0,-24.0,1035.0 
221.0,-46.0,1025.0 
251.0,-55.0,1027.0 
263.0,-95.0,1016.0 
253.0,-96.0,1049.0 
237.0,-124.0,1056.0 
230.0,-136.0,1083.0 
239.0,-149.0,1097.0 
243.0,-179.0,1060.0 
203.0,-194.0,1067.0 
215.0,-177.0,1118.0 
234.0,-207.0,1184.0 
225.0,-215.0,1296.0 
215.0,-211.0,1328.0 
205.0,-191.0,1353.0 
201.0,-204.0,1382.0 
269.0,-179.0,1434.0 
268.0,-179.0,1403.0 
224.0,-188.0,1360.0 
205.0,-199.0,1338.0 
124.0,-217.0,1348.0 
98.0,-212.0,1332.0 
50.0,-207.0,1332.0 
21.0,-209.0,1322.0 
22.0,-227.0,1358.0 
57.0,-194.0,1409.0 
85.0,-190.0,1441.0 
108.0,-177.0,1383.0 
26.0,-208.0,1353.0 
-10.0,-195.0,1366.0 
-15.0,-193.0,1392.0 
-39.0,-192.0,1413.0 
-33.0,-175.0,1434.0 
-53.0,-197.0,1400.0 
-56.0,-163.0,1392.0 
-68.0,-163.0,1351.0 
-95.0,-145.0,1323.0 
-137.0,-154.0,1288.0 
-162.0,-145.0,1277.0 
-174.0,-124.0,1282.0 
-181.0,-122.0,1253.0 
-203.0,-112.0,1226.0 
-216.0,-96.0,1195.0 
-247.0,-66.0,1148.0 
-236.0,-78.0,1155.0 
-241.0,-46.0,1162.0 
6.0,33.0,1145.0 
6.0,26.0,1141.0 
4.0,27.0,1129.0 
2.0,21.0,1129.0 
5.0,26.0,1134.0 
2.0,19.0,1133.0 
4.0,29.0,1148.0 
9.0,36.0,1151.0 
12.0,37.0,1157.0 
16.0,43.0,1162.0 
9.0,27.0,1144.0 
0.0,18.0,1143.0 
0.0,19.0,1149.0 
6.0,25.0,1151.0 
2.0,15.0,1144.0 
-17.0,9.0,1111.0 
-9.0,21.0,1117.0 
0.0,22.0,1155.0 
14.0,44.0,1166.0 
13.0,40.0,1163.0 
-10.0,36.0,1149.0 
-14.0,37.0,1146.0 
-11.0,36.0,1154.0 
-7.0,54.0,1174.0 
4.0,59.0,1199.0 
23.0,56.0,1203.0 
-27.0,56.0,1186.0 
-18.0,75.0,1203.0 
-24.0,59.0,1190.0 
-75.0,57.0,1154.0 
-113.0,42.0,1152.0 
-112.0,59.0,1164.0 
-97.0,76.0,1205.0 
-107.0,106.0,1219.0 
-138.0,78.0,1198.0 
-87.0,185.0,1251.0 
-126.0,128.0,1249.0 
-121.0,131.0,1239.0 
-144.0,111.0,1221.0 
-148.0,107.0,1209.0 
-165.0,83.0,1186.0 
-187.0,58.0,1129.0 
-176.0,66.0,1131.0 
-161.0,92.0,1143.0 
-150.0,118.0,1195.0 
-132.0,155.0,1186.0 
-133.0,173.0,1180.0 
-145.0,177.0,1175.0 
-170.0,182.0,1102.0 
-178.0,169.0,1097.0 
-170.0,172.0,1028.0 
-166.0,107.0,979.0 
-152.0,125.0,969.0 
-111.0,147.0,936.0 
-70.0,73.0,917.0 
-96.0,93.0,931.0 
-96.0,104.0,887.0 
-71.0,124.0,920.0 
-57.0,155.0,913.0 
-72.0,164.0,884.0 
-76.0,152.0,795.0 
-70.0,146.0,754.0 
-45.0,124.0,718.0 
-28.0,86.0,697.0 
15.0,59.0,742.0 
61.0,45.0,669.0 
74.0,76.0,701.0 
110.0,76.0,736.0 
125.0,57.0,712.0 
119.0,47.0,677.0 
113.0,-5.0,635.0 
132.0,-45.0,611.0 
225.0,-171.0,627.0 
229.0,-191.0,659.0 
238.0,-144.0,689.0 
202.0,-116.0,782.0 
179.0,-66.0,836.0 
156.0,-66.0,871.0 
129.0,-117.0,881.0 
104.0,-187.0,901.0 
169.0,-238.0,908.0 
208.0,-252.0,903.0 
254.0,-214.0,940.0 
274.0,-229.0,940.0 
139.0,-159.0,952.0 
95.0,-82.0,1018.0 
7.0,-103.0,1139.0 
-38.0,-178.0,1278.0 
-15.0,-229.0,1339.0 
63.0,-297.0,1359.0 
188.0,-404.0,1368.0 
303.0,-482.0,1274.0 
313.0,-423.0,1288.0 
233.0,-431.0,1263.0 
185.0,-316.0,1344.0 
72.0,-301.0,1488.0 
50.0,-274.0,1538.0 
14.0,-288.0,1499.0 
-12.0,-342.0,1505.0 
163.0,-333.0,1510.0 
147.0,-393.0,1444.0 
150.0,-396.0,1350.0 
118.0,-400.0,1461.0 
103.0,-323.0,1541.0 
41.0,-315.0,1550.0 
-14.0,-317.0,1557.0 
-71.0,-287.0,1655.0 
-57.0,-266.0,1695.0 
-30.0,-248.0,1702.0 
-8.0,-250.0,1661.0 
1.0,-276.0,1596.0 
62.0,-304.0,1479.0 
23.0,-309.0,1345.0 
-40.0,-354.0,1282.0 
-57.0,-357.0,1271.0 
-117.0,-358.0,1346.0 
-80.0,-321.0,1462.0 
-71.0,-301.0,1488.0 
-106.0,-275.0,1435.0 
-75.0,-243.0,1473.0 
-59.0,-196.0,1454.0 
-74.0,-243.0,1398.0 
-55.0,-192.0,1365.0 
-54.0,-149.0,1379.0 
-67.0,-174.0,1340.0 
-72.0,-182.0,1311.0 
-106.0,-191.0,1201.0 
-134.0,-231.0,1110.0 
-166.0,-252.0,1060.0 
-134.0,-198.0,1115.0 
-67.0,-163.0,1303.0 
-65.0,-113.0,1408.0 
-96.0,-138.0,1417.0 
-116.0,-154.0,1410.0 
-210.0,-175.0,1380.0 
-266.0,-177.0,1313.0 
-309.0,-168.0,1277.0 
-309.0,-155.0,1315.0 
-297.0,-89.0,1388.0 
-289.0,-68.0,1439.0 
-288.0,-46.0,1424.0 
-317.0,-49.0,1375.0 
-355.0,1.0,1354.0 
-387.0,7.0,1310.0 
-438.0,-34.0,1226.0 
-483.0,-46.0,1169.0 
-451.0,-45.0,1222.0 
-384.0,0.0,1262.0 
-344.0,0.0,1232.0 
-342.0,-3.0,1158.0 
-331.0,19.0,1152.0 
-347.0,14.0,1125.0 
-353.0,20.0,1120.0 
-352.0,52.0,1131.0 
-352.0,41.0,1087.0 
-361.0,43.0,1054.0 
-344.0,36.0,1021.0 
-276.0,26.0,990.0 
-258.0,17.0,959.0 
-247.0,26.0,940.0 
-220.0,48.0,948.0 
-227.0,66.0,919.0 
-240.0,66.0,900.0 
-245.0,71.0,873.0 
-210.0,47.0,895.0 
-149.0,16.0,885.0 
-125.0,6.0,903.0 
-84.0,-12.0,865.0 
-63.0,-4.0,873.0 
-22.0,20.0,867.0 
-10.0,34.0,888.0 
-18.0,67.0,918.0 
-41.0,100.0,911.0 
-70.0,111.0,932.0 
-44.0,93.0,938.0 
-2.0,98.0,928.0 
23.0,46.0,811.0 
82.0,27.0,814.0 
116.0,-7.0,788.0 
126.0,-33.0,791.0 
130.0,-45.0,827.0 
163.0,-33.0,863.0 
151.0,-36.0,863.0 
191.0,-14.0,906.0 
252.0,12.0,933.0 
242.0,22.0,947.0 
265.0,19.0,938.0 
296.0,17.0,948.0 
314.0,-38.0,944.0 
314.0,-24.0,951.0 
317.0,-35.0,984.0 
332.0,-11.0,1070.0 
323.0,7.0,1076.0 
321.0,-19.0,1098.0 
332.0,-19.0,1108.0 
333.0,-27.0,1121.0 
325.0,-52.0,1128.0 
300.0,-69.0,1120.0 
292.0,-66.0,1134.0 
299.0,-74.0,1186.0 
16.0,166.0,1132.0 
1.0,153.0,1133.0 
-5.0,138.0,1121.0 
6.0,131.0,1117.0 
3.0,123.0,1110.0 
8.0,135.0,1111.0 
-11.0,168.0,1129.0 
-2.0,191.0,1141.0 
-8.0,194.0,1138.0 
-17.0,202.0,1127.0 
-17.0,191.0,1110.0 
-13.0,187.0,1116.0 
-7.0,186.0,1101.0 
-56.0,179.0,1046.0 
-41.0,159.0,1046.0 
-19.0,150.0,1053.0 
-8.0,145.0,1051.0 
1.0,159.0,1039.0 
10.0,173.0,1041.0 
-2.0,168.0,1031.0 
-19.0,173.0,1033.0 
-28.0,171.0,1030.0 
-26.0,170.0,1027.0 
-37.0,173.0,1009.0 
-31.0,163.0,990.0 
-29.0,172.0,953.0 
-20.0,155.0,939.0 
-16.0,144.0,940.0 
-8.0,141.0,905.0 
2.0,103.0,833.0 
-17.0,68.0,781.0 
-3.0,50.0,747.0 
33.0,51.0,759.0 
79.0,52.0,755.0 
116.0,53.0,745.0 
104.0,62.0,752.0 
74.0,72.0,772.0 
41.0,145.0,827.0 
1.0,213.0,844.0 
-37.0,212.0,828.0 
-62.0,168.0,771.0 
-3.0,64.0,821.0 
60.0,15.0,860.0 
76.0,-23.0,886.0 
54.0,-45.0,914.0 
54.0,-16.0,962.0 
82.0,6.0,1027.0 
89.0,-3.0,1056.0 
87.0,-25.0,1120.0 
76.0,-61.0,1167.0 
80.0,-80.0,1196.0 
89.0,-96.0,1205.0 
77.0,-136.0,1169.0 
86.0,-160.0,1156.0 
85.0,-192.0,1167.0 
91.0,-205.0,1159.0 
82.0,-245.0,1220.0 
81.0,-221.0,1307.0 
113.0,-183.0,1387.0 
133.0,-197.0,1454.0 
175.0,-155.0,1494.0 
165.0,-162.0,1461.0 
150.0,-162.0,1404.0 
99.0,-183.0,1343.0 
47.0,-256.0,1256.0 
3.0,-286.0,1252.0 
6.0,-280.0,1264.0 
-12.0,-268.0,1349.0 
81.0,-164.0,1544.0 
136.0,-162.0,1568.0 
185.0,-152.0,1603.0 
218.0,-193.0,1418.0 
147.0,-216.0,1352.0 
119.0,-216.0,1363.0 
63.0,-246.0,1369.0 
28.0,-227.0,1376.0 
-55.0,-191.0,1407.0 
-43.0,-144.0,1435.0 
-17.0,-108.0,1472.0 
53.0,-64.0,1524.0 
81.0,-130.0,1489.0 
99.0,-127.0,1494.0 
115.0,-153.0,1473.0 
114.0,-189.0,1353.0 
35.0,-237.0,1276.0 
-4.0,-287.0,1255.0 
-13.0,-305.0,1284.0 
-17.0,-304.0,1251.0 
-55.0,-287.0,1249.0 
-40.0,-244.0,1275.0 
-13.0,-178.0,1348.0 
-5.0,-51.0,1414.0 
-39.0,-63.0,1425.0 
-56.0,-42.0,1398.0 
-84.0,-30.0,1373.0 
-116.0,-79.0,1300.0 
-131.0,-91.0,1267.0 
-122.0,-97.0,1264.0 
-130.0,-136.0,1262.0 
-98.0,-102.0,1298.0 
-109.0,-101.0,1352.0 
-106.0,-80.0,1381.0 
-119.0,-51.0,1370.0 
-170.0,-23.0,1335.0 
-204.0,-20.0,1298.0 
-248.0,-12.0,1271.0 
-257.0,-14.0,1255.0 
-293.0,5.0,1266.0 
-301.0,21.0,1278.0 
-309.0,37.0,1271.0 
-299.0,47.0,1284.0 
-257.0,41.0,1273.0 
-256.0,45.0,1257.0 
-247.0,49.0,1214.0 
-281.0,88.0,1155.0 
-344.0,72.0,1137.0 
-372.0,94.0,1114.0 
-385.0,81.0,1114.0 
-363.0,64.0,1160.0 
-284.0,31.0,1153.0 
-239.0,0.0,1153.0 
-212.0,-11.0,1111.0 
-172.0,-1.0,1097.0 
-174.0,10.0,1096.0 
-170.0,62.0,1098.0 
-196.0,69.0,1120.0 
-260.0,92.0,1108.0 
-286.0,86.0,1082.0 
-288.0,79.0,1060.0 
-274.0,79.0,1037.0 
-162.0,99.0,1052.0 
-126.0,103.0,1047.0 
-112.0,114.0,1069.0 
-81.0,126.0,1008.0 
-146.0,108.0,1059.0 
-146.0,104.0,1023.0 
-149.0,93.0,1011.0 
-124.0,85.0,987.0 
-77.0,81.0,978.0 
-68.0,105.0,989.0 
-72.0,122.0,969.0 
-77.0,147.0,952.0 
-55.0,158.0,946.0 
-36.0,143.0,936.0 
-1.0,135.0,921.0 
26.0,109.0,893.0 
64.0,85.0,891.0 
115.0,110.0,923.0 
122.0,113.0,912.0 
141.0,130.0,922.0 
171.0,120.0,941.0 
198.0,89.0,948.0 
239.0,70.0,931.0 
305.0,20.0,926.0 
333.0,-5.0,916.0 
349.0,-29.0,907.0 
379.0,-46.0,930.0 
449.0,-47.0,979.0 
459.0,-49.0,1000.0 
450.0,-44.0,1018.0 
417.0,-14.0,1012.0 
357.0,36.0,1034.0 
354.0,55.0,1054.0 
359.0,56.0,1073.0 
362.0,56.0,1063.0 
346.0,10.0,1042.0 
335.0,-4.0,1029.0 
334.0,-34.0,1030.0 
341.0,-49.0,1052.0 
337.0,-47.0,1059.0 
328.0,-32.0,1060.0 
305.0,0.0,1082.0 
289.0,77.0,1148.0 
262.0,87.0,1173.0 
235.0,75.0,1168.0 
212.0,80.0,1168.0 
203.0,73.0,1165.0 
201.0,59.0,1160.0 
205.0,63.0,1153.0 
200.0,49.0,1137.0 
198.0,70.0,1160.0 
188.0,77.0,1169.0 
172.0,90.0,1180.0 
163.0,91.0,1168.0 
134.0,75.0,1130.0 
152.0,68.0,1113.0 
148.0,55.0,1109.0 
147.0,55.0,1093.0 
157.0,75.0,1100.0 
158.0,89.0,1108.0 
145.0,101.0,1113.0 
140.0,107.0,1122.0 
140.0,117.0,1139.0 
135.0,118.0,1139.0 
132.0,102.0,1126.0 
127.0,100.0,1116.0 
137.0,73.0,1116.0 
135.0,69.0,1110.0 
136.0,62.0,1108.0 
144.0,65.0,1136.0 
75.0,114.0,1154.0 
64.0,109.0,1154.0 
83.0,107.0,1160.0 
96.0,116.0,1173.0 
96.0,111.0,1163.0 
82.0,94.0,1145.0 
66.0,81.0,1096.0 
58.0,84.0,1109.0 
63.0,90.0,1114.0 
73.0,108.0,1134.0 
76.0,115.0,1147.0 
65.0,116.0,1151.0 
51.0,114.0,1145.0 
37.0,133.0,1161.0 
-7.0,154.0,1185.0 
-27.0,166.0,1197.0 
-51.0,189.0,1206.0 
-77.0,200.0,1212.0 
-112.0,218.0,1213.0 
-87.0,245.0,1201.0 
-113.0,238.0,1187.0 
-93.0,265.0,1126.0 
-117.0,264.0,1100.0 
-141.0,288.0,1067.0 
-130.0,249.0,1039.0 
-126.0,240.0,942.0 
-154.0,170.0,886.0 
-144.0,154.0,861.0 
-146.0,126.0,831.0 
-128.0,92.0,781.0 
-121.0,103.0,753.0 
-113.0,135.0,716.0 
-115.0,176.0,697.0 
-95.0,257.0,672.0 
-90.0,304.0,756.0 
-78.0,299.0,754.0 
-134.0,277.0,698.0 
-145.0,189.0,681.0 
-106.0,165.0,675.0 
-89.0,132.0,655.0 
-61.0,114.0,636.0 
-13.0,79.0,635.0 
20.0,61.0,652.0 
57.0,5.0,690.0 
118.0,-37.0,717.0 
125.0,-233.0,747.0 
143.0,-291.0,775.0 
185.0,-377.0,819.0 
254.0,-352.0,1005.0 
370.0,-297.0,1116.0 
373.0,-266.0,1155.0 
388.0,-224.0,1187.0 
379.0,-222.0,1236.0 
248.0,-293.0,1251.0 
185.0,-350.0,1266.0 
178.0,-343.0,1274.0 
165.0,-344.0,1298.0 
262.0,-347.0,1280.0 
316.0,-341.0,1258.0 
384.0,-329.0,1237.0 
433.0,-310.0,1297.0 
368.0,-278.0,1369.0 
310.0,-246.0,1419.0 
230.0,-222.0,1472.0 
177.0,-187.0,1544.0 
126.0,-174.0,1524.0 
129.0,-189.0,1527.0 
193.0,-179.0,1526.0 
270.0,-270.0,1545.0 
276.0,-271.0,1568.0 
264.0,-267.0,1592.0 
273.0,-238.0,1600.0 
205.0,-230.0,1610.0 
180.0,-223.0,1644.0 
158.0,-235.0,1642.0 
121.0,-239.0,1621.0 
117.0,-206.0,1613.0 
152.0,-173.0,1610.0 
166.0,-173.0,1571.0 
161.0,-174.0,1499.0 
97.0,-208.0,1463.0 
58.0,-210.0,1437.0 
38.0,-250.0,1400.0 
2.0,-262.0,1332.0 
14.0,-250.0,1335.0 
41.0,-221.0,1374.0 
69.0,-181.0,1403.0 
69.0,-148.0,1419.0 
1.0,-158.0,1421.0 
-38.0,-143.0,1411.0 
-73.0,-150.0,1405.0 
-90.0,-148.0,1372.0 
-112.0,-124.0,1355.0 
-94.0,-141.0,1345.0 
-122.0,-144.0,1327.0 
-137.0,-152.0,1331.0 
-152.0,-147.0,1334.0 
-153.0,-135.0,1342.0 
-151.0,-109.0,1328.0 
-168.0,-54.0,1304.0 
-202.0,-44.0,1279.0 
-223.0,-37.0,1256.0 
-259.0,-29.0,1227.0 
-305.0,-71.0,1226.0 
-307.0,-70.0,1225.0 
-307.0,-57.0,1237.0 
-298.0,-40.0,1217.0 
-302.0,21.0,1188.0 
-279.0,105.0,1182.0 
-278.0,130.0,1180.0 
-279.0,132.0,1184.0 
-321.0,135.0,1197.0 
-351.0,81.0,1217.0 
-321.0,86.0,1164.0 
-343.0,-20.0,1012.0 
-284.0,-1.0,1020.0 
-230.0,16.0,1054.0 
-199.0,55.0,1094.0 
-161.0,117.0,1164.0 
-205.0,147.0,1145.0 
-233.0,146.0,1126.0 
-249.0,151.0,1101.0 
-240.0,149.0,1067.0 
-258.0,130.0,1021.0 
-269.0,107.0,985.0 
-232.0,111.0,996.0 
-150.0,130.0,1007.0 
-120.0,139.0,994.0 
-107.0,144.0,994.0 
-80.0,159.0,968.0 
-105.0,144.0,929.0 
-125.0,136.0,913.0 
-136.0,129.0,892.0 
-142.0,125.0,856.0 
-106.0,129.0,854.0 
-87.0,137.0,836.0 
-71.0,131.0,813.0 
-52.0,122.0,820.0 
44.0,139.0,834.0 
74.0,139.0,852.0 
84.0,135.0,828.0 
74.0,130.0,792.0 
95.0,143.0,794.0 
112.0,129.0,806.0 
135.0,136.0,850.0 
137.0,155.0,896.0 
152.0,130.0,927.0 
162.0,127.0,948.0 
180.0,112.0,985.0 
210.0,61.0,1063.0 
294.0,57.0,1050.0 
323.0,24.0,1061.0 
338.0,-13.0,1043.0 
337.0,-68.0,1045.0 
335.0,-107.0,1027.0 
320.0,-110.0,1033.0 
314.0,-110.0,1050.0 
329.0,-76.0,1138.0 
342.0,-64.0,1194.0 
387.0,-34.0,1240.0 
371.0,-31.0,1269.0 
377.0,-7.0,1264.0 
351.0,-11.0,1248.0 
319.0,-38.0,1227.0 
294.0,-66.0,1170.0 
262.0,-93.0,1158.0 
249.0,-86.0,1146.0 
244.0,-86.0,1156.0 
250.0,-45.0,1176.0 
272.0,-21.0,1191.0 
270.0,-22.0,1174.0 
283.0,7.0,1187.0 
289.0,17.0,1195.0 
241.0,0.0,1149.0 
204.0,-15.0,1122.0 
190.0,-27.0,1105.0 
189.0,-40.0,1090.0 
182.0,-48.0,1091.0 
181.0,-40.0,1090.0 
187.0,-30.0,1100.0 
186.0,5.0,1115.0 
169.0,2.0,1133.0 
189.0,42.0,1174.0 
193.0,56.0,1201.0 
148.0,43.0,1163.0 
132.0,56.0,1096.0 
65.0,-38.0,1072.0 
47.0,-34.0,1026.0 
88.0,5.0,1079.0 
115.0,43.0,1126.0 
118.0,66.0,1151.0 
109.0,76.0,1121.0 
101.0,79.0,1154.0 
112.0,85.0,1183.0 
113.0,77.0,1190.0 
99.0,44.0,1118.0 
77.0,9.0,1108.0 
75.0,5.0,1115.0 
73.0,4.0,1114.0 
86.0,41.0,1147.0 
-3.0,65.0,1133.0 
18.0,70.0,1135.0 
8.0,68.0,1126.0 
16.0,74.0,1111.0 
14.0,55.0,1093.0 
31.0,59.0,1100.0 
36.0,66.0,1121.0 
30.0,73.0,1128.0 
32.0,78.0,1127.0 
33.0,75.0,1135.0 
32.0,71.0,1144.0 
50.0,77.0,1153.0 
47.0,55.0,1133.0 
38.0,65.0,1132.0 
35.0,67.0,1122.0 
32.0,67.0,1128.0 
27.0,83.0,1158.0 
42.0,80.0,1166.0 
32.0,77.0,1163.0 
26.0,77.0,1147.0 
30.0,66.0,1132.0 
31.0,65.0,1132.0 
38.0,58.0,1132.0 
32.0,53.0,1128.0 
29.0,53.0,1123.0 
22.0,68.0,1123.0 
22.0,68.0,1126.0 
25.0,77.0,1158.0 
40.0,89.0,1174.0 
49.0,87.0,1179.0 
37.0,78.0,1167.0 
31.0,70.0,1153.0 
42.0,57.0,1142.0 
40.0,56.0,1136.0 
25.0,57.0,1125.0 
21.0,50.0,1129.0 
32.0,69.0,1142.0 
26.0,74.0,1146.0 
17.0,77.0,1152.0 
16.0,101.0,1168.0 
-16.0,120.0,1174.0 
-29.0,136.0,1188.0 
-47.0,153.0,1201.0 
-100.0,131.0,1162.0 
-170.0,148.0,1171.0 
-196.0,154.0,1197.0 
-218.0,198.0,1215.0 
-263.0,246.0,1228.0 
-275.0,274.0,1224.0 
-307.0,296.0,1209.0 
-351.0,321.0,1112.0 
-383.0,332.0,1073.0 
-371.0,350.0,1007.0 
-398.0,328.0,927.0 
-424.0,332.0,804.0 
-456.0,284.0,730.0 
-396.0,253.0,653.0 
-353.0,264.0,626.0 
-283.0,277.0,588.0 
-160.0,227.0,572.0 
-140.0,162.0,507.0 
-89.0,199.0,400.0 
-29.0,77.0,365.0 
40.0,19.0,344.0 
89.0,-31.0,294.0 
121.0,-86.0,319.0 
150.0,-197.0,520.0 
256.0,-231.0,639.0 
313.0,-228.0,802.0 
377.0,-203.0,861.0 
369.0,-210.0,848.0 
373.0,-215.0,882.0 
404.0,-238.0,948.0 
390.0,-268.0,1060.0 
327.0,-278.0,1168.0 
305.0,-277.0,1167.0 
280.0,-268.0,1240.0 
317.0,-222.0,1355.0 
360.0,-178.0,1571.0 
363.0,-182.0,1591.0 
345.0,-216.0,1569.0 
325.0,-282.0,1533.0 
320.0,-390.0,1442.0 
296.0,-449.0,1341.0 
306.0,-484.0,1302.0 
319.0,-496.0,1377.0 
325.0,-405.0,1421.0 
269.0,-284.0,1496.0 
244.0,-196.0,1518.0 
182.0,-156.0,1571.0 
140.0,-158.0,1547.0 
117.0,-232.0,1509.0 
114.0,-323.0,1459.0 
159.0,-441.0,1396.0 
188.0,-400.0,1414.0 
211.0,-386.0,1494.0 
234.0,-301.0,1535.0 
200.0,-229.0,1566.0 
68.0,-213.0,1551.0 
42.0,-210.0,1569.0 
3.0,-188.0,1590.0 
-4.0,-234.0,1536.0 
-67.0,-255.0,1461.0 
-73.0,-287.0,1424.0 
-44.0,-263.0,1423.0 
-8.0,-228.0,1426.0 
-21.0,-227.0,1429.0 
-36.0,-173.0,1425.0 
-48.0,-173.0,1382.0 
-86.0,-174.0,1353.0 
-106.0,-176.0,1313.0 
-132.0,-194.0,1247.0 
-146.0,-176.0,1237.0 
-117.0,-172.0,1231.0 
-104.0,-144.0,1274.0 
-96.0,-118.0,1294.0 
-114.0,-128.0,1338.0 
-136.0,-82.0,1353.0 
-148.0,-57.0,1373.0 
-174.0,-64.0,1378.0 
-199.0,-85.0,1313.0 
-238.0,-103.0,1296.0 
-230.0,-104.0,1277.0 
-237.0,-58.0,1295.0 
-228.0,-24.0,1280.0 
-259.0,4.0,1264.0 
-331.0,11.0,1255.0 
-329.0,50.0,1268.0 
-342.0,77.0,1305.0 
-309.0,72.0,1274.0 
-304.0,48.0,1271.0 
-271.0,40.0,1241.0 
-301.0,37.0,1165.0 
-314.0,43.0,1130.0 
-341.0,55.0,1146.0 
-317.0,72.0,1180.0 
-323.0,100.0,1222.0 
-312.0,88.0,1227.0 
-304.0,90.0,1197.0 
-276.0,101.0,1125.0 
-308.0,88.0,1077.0 
-300.0,79.0,1060.0 
-290.0,82.0,1048.0 
-304.0,97.0,1066.0 
-278.0,115.0,1063.0 
-264.0,101.0,1051.0 
-255.0,104.0,1033.0 
-218.0,122.0,1011.0 
-216.0,115.0,989.0 
-215.0,98.0,976.0 
-175.0,117.0,974.0 
-186.0,89.0,949.0 
-155.0,95.0,948.0 
-155.0,98.0,942.0 
-119.0,108.0,928.0 
-124.0,133.0,936.0 
-89.0,120.0,966.0 
-72.0,120.0,946.0 
-50.0,132.0,927.0 
-52.0,64.0,859.0 
-47.0,88.0,846.0 
-59.0,32.0,810.0 
-33.0,42.0,801.0 
22.0,-8.0,747.0 
57.0,-35.0,795.0 
125.0,38.0,873.0 
140.0,94.0,894.0 
79.0,193.0,905.0 
75.0,230.0,917.0 
54.0,237.0,916.0 
43.0,230.0,900.0 
59.0,130.0,879.0 
106.0,85.0,872.0 
177.0,41.0,888.0 
223.0,-3.0,928.0 
312.0,-20.0,945.0 
322.0,-9.0,994.0 
318.0,1.0,1034.0 
311.0,2.0,1094.0 
270.0,-12.0,1110.0 
277.0,-4.0,1133.0 
297.0,-35.0,1145.0 
307.0,-127.0,1086.0 
340.0,-144.0,1110.0 
358.0,-150.0,1105.0 
378.0,-127.0,1172.0 
400.0,-130.0,1214.0 
414.0,-90.0,1283.0 
359.0,-79.0,1272.0 
327.0,-55.0,1237.0 
282.0,-75.0,1183.0 
265.0,-84.0,1173.0 
243.0,-102.0,1141.0 
210.0,-110.0,1125.0 
212.0,-74.0,1135.0 
225.0,-50.0,1155.0 
213.0,-51.0,1146.0 
224.0,-21.0,1174.0 
212.0,7.0,1193.0 
196.0,17.0,1196.0 
46.0,32.0,1150.0 
47.0,26.0,1145.0 
46.0,20.0,1139.0 
44.0,36.0,1151.0 
34.0,39.0,1151.0 
34.0,41.0,1146.0 
32.0,47.0,1130.0 
46.0,37.0,1144.0 
58.0,42.0,1145.0 
52.0,31.0,1133.0 
54.0,28.0,1124.0 
43.0,36.0,1132.0 
39.0,38.0,1138.0 
41.0,43.0,1150.0 
45.0,35.0,1135.0 
41.0,36.0,1133.0 
48.0,34.0,1128.0 
55.0,31.0,1124.0 
52.0,28.0,1126.0 
57.0,31.0,1120.0 
50.0,39.0,1123.0 
46.0,37.0,1127.0 
38.0,59.0,1137.0 
25.0,58.0,1140.0 
30.0,56.0,1146.0 
26.0,55.0,1154.0 
8.0,52.0,1160.0 
0.0,49.0,1149.0 
-2.0,45.0,1146.0 
1.0,53.0,1153.0 
-28.0,78.0,1130.0 
-50.0,103.0,1124.0 
-82.0,120.0,1129.0 
-104.0,136.0,1135.0 
-147.0,183.0,1122.0 
-161.0,200.0,1120.0 
-168.0,188.0,1105.0 
-175.0,181.0,1075.0 
-165.0,159.0,1032.0 
-183.0,156.0,968.0 
-190.0,166.0,899.0 
-164.0,226.0,732.0 
-199.0,159.0,766.0 
-163.0,201.0,790.0 
-165.0,217.0,818.0 
-147.0,217.0,843.0 
-117.0,261.0,877.0 
-102.0,245.0,843.0 
-124.0,222.0,832.0 
-99.0,130.0,676.0 
-59.0,98.0,722.0 
2.0,61.0,683.0 
11.0,7.0,705.0 
108.0,-75.0,683.0 
69.0,-141.0,705.0 
84.0,-97.0,708.0 
46.0,-68.0,784.0 
51.0,-17.0,918.0 
63.0,-12.0,1008.0 
116.0,-51.0,1041.0 
148.0,-60.0,1100.0 
215.0,-99.0,1104.0 
239.0,-137.0,1084.0 
265.0,-155.0,1076.0 
249.0,-190.0,1065.0 
160.0,-236.0,1066.0 
123.0,-282.0,1088.0 
123.0,-290.0,1129.0 
164.0,-263.0,1248.0 
203.0,-267.0,1290.0 
275.0,-268.0,1317.0 
306.0,-266.0,1341.0 
333.0,-279.0,1332.0 
273.0,-312.0,1310.0 
229.0,-313.0,1291.0 
175.0,-329.0,1261.0 
133.0,-379.0,1203.0 
158.0,-367.0,1232.0 
179.0,-369.0,1280.0 
173.0,-350.0,1356.0 
194.0,-285.0,1442.0 
223.0,-271.0,1433.0 
199.0,-253.0,1394.0 
176.0,-277.0,1353.0 
107.0,-321.0,1376.0 
89.0,-343.0,1415.0 
67.0,-383.0,1447.0 
51.0,-386.0,1437.0 
82.0,-367.0,1424.0 
109.0,-357.0,1421.0 
116.0,-329.0,1456.0 
107.0,-313.0,1450.0 
52.0,-230.0,1444.0 
2.0,-245.0,1448.0 
-35.0,-251.0,1422.0 
-52.0,-280.0,1344.0 
-95.0,-321.0,1319.0 
-66.0,-321.0,1284.0 
-50.0,-332.0,1286.0 
-29.0,-306.0,1289.0 
-2.0,-270.0,1303.0 
9.0,-242.0,1312.0 
15.0,-220.0,1318.0 
-3.0,-177.0,1284.0 
-50.0,-196.0,1287.0 
-83.0,-183.0,1209.0 
-111.0,-213.0,1203.0 
-105.0,-202.0,1145.0 
-80.0,-214.0,1166.0 
-45.0,-198.0,1185.0 
-24.0,-164.0,1219.0 
-39.0,-174.0,1230.0 
-58.0,-165.0,1248.0 
-59.0,-131.0,1269.0 
-101.0,-149.0,1280.0 
-143.0,-131.0,1263.0 
-158.0,-127.0,1258.0 
-150.0,-107.0,1248.0 
-161.0,-113.0,1252.0 
-155.0,-68.0,1247.0 
-164.0,-46.0,1261.0 
-167.0,-36.0,1273.0 
-177.0,-22.0,1297.0 
-223.0,-28.0,1285.0 
-261.0,-61.0,1266.0 
-247.0,-84.0,1266.0 
-219.0,-67.0,1235.0 
-227.0,-48.0,1222.0 
-253.0,-30.0,1216.0 
-254.0,25.0,1219.0 
-257.0,69.0,1306.0 
-230.0,58.0,1283.0 
-270.0,34.0,1248.0 
-273.0,22.0,1226.0 
-262.0,-26.0,1178.0 
-224.0,-39.0,1159.0 
-220.0,-39.0,1127.0 
-209.0,-39.0,1132.0 
-183.0,22.0,1130.0 
-209.0,59.0,1116.0 
-221.0,83.0,1118.0 
-226.0,91.0,1128.0 
-223.0,97.0,1138.0 
-232.0,53.0,1114.0 
-228.0,1.0,1060.0 
-210.0,-30.0,1060.0 
-87.0,-30.0,1096.0 
-66.0,-9.0,1096.0 
-71.0,0.0,1086.0 
-55.0,42.0,1046.0 
-127.0,70.0,1058.0 
-126.0,85.0,1072.0 
-151.0,74.0,1082.0 
-177.0,42.0,1013.0 
-160.0,-35.0,969.0 
-79.0,-18.0,992.0 
-40.0,-10.0,986.0 
0.0,12.0,987.0 
13.0,38.0,1006.0 
23.0,41.0,1031.0 
17.0,60.0,1069.0 
-9.0,85.0,1082.0 
-62.0,98.0,1079.0 
-61.0,96.0,1054.0 
-39.0,78.0,1028.0 
-2.0,48.0,967.0 
60.0,40.0,930.0 
73.0,30.0,922.0 
91.0,51.0,937.0 
85.0,48.0,974.0 
103.0,34.0,978.0 
112.0,32.0,969.0 
127.0,42.0,977.0 
99.0,-7.0,971.0 
123.0,8.0,944.0 
131.0,-32.0,931.0 
192.0,6.0,949.0 
192.0,-32.0,933.0 
230.0,-28.0,962.0 
239.0,-36.0,1007.0 
282.0,-11.0,1079.0 
277.0,-35.0,1071.0 
275.0,-34.0,1062.0 
288.0,-47.0,1046.0 
292.0,-72.0,1029.0 
292.0,-103.0,1017.0 
285.0,-117.0,1022.0 
299.0,-90.0,1056.0 
296.0,-56.0,1117.0 
305.0,-26.0,1147.0 
300.0,-2.0,1167.0 
295.0,0.0,1171.0 
296.0,-17.0,1116.0 
248.0,-44.0,1085.0 
232.0,-70.0,1075.0 
218.0,-104.0,1046.0 
220.0,-92.0,1075.0 
225.0,-90.0,1082.0 
224.0,-68.0,1113.0 
239.0,-51.0,1161.0 
46.0,24.0,1121.0 
45.0,22.0,1113.0 
53.0,19.0,1111.0 
62.0,16.0,1114.0 
66.0,21.0,1117.0 
61.0,21.0,1126.0 
56.0,27.0,1140.0 
51.0,46.0,1155.0 
57.0,49.0,1156.0 
51.0,44.0,1156.0 
43.0,44.0,1132.0 
44.0,32.0,1128.0 
42.0,29.0,1113.0 
44.0,28.0,1118.0 
51.0,21.0,1116.0 
56.0,30.0,1131.0 
60.0,31.0,1142.0 
54.0,34.0,1151.0 
52.0,30.0,1162.0 
59.0,32.0,1156.0 
56.0,34.0,1159.0 
54.0,29.0,1155.0 
51.0,31.0,1141.0 
36.0,28.0,1137.0 
34.0,36.0,1141.0 
36.0,35.0,1148.0 
33.0,29.0,1141.0 
9.0,22.0,1128.0 
24.0,30.0,1129.0 
27.0,40.0,1166.0 
-3.0,54.0,1146.0 
-20.0,74.0,1147.0 
-26.0,90.0,1153.0 
-36.0,97.0,1172.0 
-52.0,111.0,1170.0 
-66.0,109.0,1157.0 
-69.0,122.0,1151.0 
-76.0,139.0,1147.0 
-113.0,172.0,1132.0 
-120.0,183.0,1107.0 
-127.0,178.0,1098.0 
-132.0,163.0,1079.0 
-146.0,162.0,1059.0 
-116.0,126.0,1044.0 
-98.0,109.0,1022.0 
-89.0,70.0,960.0 
-79.0,66.0,927.0 
-63.0,69.0,912.0 
-56.0,74.0,909.0 
2.0,68.0,852.0 
-21.0,97.0,851.0 
-13.0,110.0,841.0 
12.0,100.0,855.0 
-1.0,103.0,764.0 
-17.0,77.0,742.0 
43.0,140.0,735.0 
-25.0,60.0,731.0 
37.0,65.0,760.0 
51.0,52.0,779.0 
56.0,48.0,775.0 
39.0,12.0,766.0 
69.0,7.0,695.0 
91.0,-26.0,696.0 
149.0,-45.0,767.0 
187.0,-74.0,775.0 
195.0,-118.0,751.0 
164.0,-190.0,786.0 
134.0,-201.0,824.0 
96.0,-217.0,954.0 
177.0,-201.0,1060.0 
194.0,-176.0,1134.0 
251.0,-122.0,1148.0 
255.0,-127.0,1104.0 
220.0,-136.0,1054.0 
202.0,-167.0,1040.0 
157.0,-224.0,1033.0 
94.0,-325.0,1083.0 
90.0,-386.0,1207.0 
156.0,-366.0,1316.0 
204.0,-355.0,1369.0 
262.0,-344.0,1378.0 
322.0,-343.0,1372.0 
304.0,-334.0,1396.0 
259.0,-304.0,1415.0 
138.0,-328.0,1401.0 
76.0,-371.0,1373.0 
44.0,-425.0,1379.0 
87.0,-452.0,1426.0 
164.0,-476.0,1479.0 
203.0,-439.0,1508.0 
242.0,-421.0,1503.0 
231.0,-398.0,1460.0 
142.0,-321.0,1449.0 
93.0,-310.0,1436.0 
23.0,-345.0,1438.0 
-3.0,-352.0,1408.0 
-16.0,-361.0,1403.0 
16.0,-309.0,1402.0 
-5.0,-370.0,1407.0 
33.0,-301.0,1395.0 
55.0,-326.0,1421.0 
35.0,-323.0,1421.0 
25.0,-290.0,1422.0 
22.0,-246.0,1434.0 
-50.0,-230.0,1380.0 
-79.0,-247.0,1326.0 
-101.0,-246.0,1272.0 
-116.0,-256.0,1229.0 
-66.0,-254.0,1246.0 
-74.0,-249.0,1284.0 
-29.0,-223.0,1326.0 
-35.0,-256.0,1341.0 
-35.0,-227.0,1322.0 
-45.0,-210.0,1334.0 
-63.0,-234.0,1276.0 
-126.0,-259.0,1170.0 
-133.0,-243.0,1173.0 
-136.0,-226.0,1203.0 
-114.0,-206.0,1281.0 
-83.0,-187.0,1321.0 
-73.0,-175.0,1331.0 
-83.0,-174.0,1339.0 
-103.0,-161.0,1310.0 
-136.0,-136.0,1318.0 
-136.0,-149.0,1314.0 
-154.0,-160.0,1293.0 
-147.0,-149.0,1281.0 
-183.0,-150.0,1289.0 
-201.0,-153.0,1283.0 
-212.0,-126.0,1300.0 
-228.0,-41.0,1369.0 
-194.0,-29.0,1366.0 
-212.0,-31.0,1312.0 
-237.0,-21.0,1307.0 
-239.0,-27.0,1287.0 
-277.0,-38.0,1264.0 
-299.0,-36.0,1230.0 
-307.0,-26.0,1235.0 
-302.0,-1.0,1265.0 
-239.0,1.0,1265.0 
-271.0,-15.0,1284.0 
-209.0,39.0,1216.0 
-248.0,55.0,1154.0 
-277.0,49.0,1160.0 
-278.0,43.0,1133.0 
-281.0,38.0,1134.0 
-293.0,34.0,1107.0 
-281.0,49.0,1097.0 
-229.0,58.0,1072.0 
-198.0,81.0,1026.0 
-180.0,93.0,977.0 
-179.0,86.0,963.0 
-164.0,97.0,964.0 
-145.0,97.0,962.0 
-172.0,79.0,929.0 
-172.0,75.0,909.0 
-150.0,80.0,909.0 
-125.0,107.0,904.0 
-87.0,96.0,866.0 
-78.0,92.0,835.0 
-42.0,101.0,834.0 
-17.0,121.0,856.0 
14.0,84.0,884.0 
26.0,90.0,897.0 
22.0,64.0,909.0 
5.0,52.0,863.0 
23.0,76.0,858.0 
24.0,82.0,870.0 
37.0,105.0,885.0 
101.0,109.0,913.0 
133.0,107.0,934.0 
160.0,84.0,938.0 
167.0,57.0,951.0 
161.0,-4.0,947.0 
153.0,-47.0,928.0 
157.0,-70.0,934.0 
217.0,-74.0,1002.0 
304.0,-33.0,1000.0 
284.0,-77.0,1008.0 
412.0,19.0,1063.0 
364.0,-38.0,1006.0 
350.0,-56.0,1029.0 
381.0,-78.0,1078.0 
379.0,-91.0,1064.0 
353.0,-132.0,1001.0 
345.0,-147.0,997.0 
336.0,-161.0,1008.0 
340.0,-117.0,1035.0 
327.0,-78.0,1093.0 
334.0,-57.0,1119.0 
339.0,-32.0,1173.0 
336.0,-18.0,1195.0 
314.0,-26.0,1185.0 
261.0,-69.0,1172.0 
244.0,-79.0,1157.0 
224.0,-99.0,1146.0 
214.0,-107.0,1136.0 
227.0,-96.0,1155.0 
230.0,-91.0,1152.0 
237.0,-63.0,1148.0 
57.0,55.0,1162.0 
56.0,62.0,1157.0 
48.0,49.0,1152.0 
55.0,48.0,1139.0 
53.0,35.0,1148.0 
50.0,29.0,1135.0 
45.0,29.0,1138.0 
42.0,25.0,1131.0 
56.0,27.0,1144.0 
61.0,26.0,1139.0 
69.0,28.0,1153.0 
73.0,39.0,1154.0 
57.0,44.0,1135.0 
46.0,52.0,1125.0 
45.0,58.0,1138.0 
48.0,103.0,1183.0 
28.0,47.0,1147.0 
26.0,46.0,1133.0 
50.0,55.0,1142.0 
40.0,25.0,1126.0 
43.0,21.0,1128.0 
44.0,34.0,1140.0 
29.0,51.0,1145.0 
8.0,75.0,1168.0 
-9.0,84.0,1199.0 
-17.0,93.0,1236.0 
-22.0,111.0,1261.0 
-68.0,124.0,1243.0 
-113.0,136.0,1219.0 
-127.0,153.0,1200.0 
-151.0,168.0,1172.0 
-140.0,194.0,1178.0 
-130.0,222.0,1173.0 
-157.0,226.0,1153.0 
-175.0,239.0,1101.0 
-186.0,222.0,1060.0 
-181.0,231.0,1020.0 
-197.0,189.0,972.0 
-193.0,153.0,850.0 
-182.0,118.0,829.0 
-152.0,121.0,805.0 
-127.0,119.0,778.0 
-107.0,138.0,780.0 
-33.0,180.0,795.0 
-26.0,195.0,723.0 
-76.0,101.0,642.0 
-59.0,123.0,565.0 
-21.0,138.0,526.0 
-33.0,121.0,571.0 
6.0,116.0,611.0 
12.0,101.0,652.0 
34.0,84.0,714.0 
65.0,79.0,746.0 
60.0,70.0,782.0 
114.0,44.0,846.0 
143.0,-10.0,829.0 
178.0,-42.0,826.0 
182.0,-121.0,797.0 
243.0,-236.0,766.0 
208.0,-342.0,705.0 
220.0,-348.0,725.0 
220.0,-343.0,824.0 
234.0,-235.0,1036.0 
207.0,-165.0,1129.0 
198.0,-139.0,1203.0 
205.0,-117.0,1203.0 
217.0,-160.0,1171.0 
234.0,-219.0,1155.0 
216.0,-288.0,1157.0 
172.0,-374.0,1148.0 
127.0,-378.0,1160.0 
106.0,-390.0,1222.0 
168.0,-332.0,1321.0 
224.0,-268.0,1450.0 
271.0,-373.0,1451.0 
273.0,-346.0,1438.0 
241.0,-354.0,1432.0 
160.0,-343.0,1420.0 
88.0,-346.0,1478.0 
100.0,-356.0,1528.0 
63.0,-359.0,1564.0 
101.0,-354.0,1582.0 
130.0,-358.0,1558.0 
127.0,-348.0,1554.0 
128.0,-313.0,1555.0 
79.0,-275.0,1536.0 
47.0,-261.0,1530.0 
50.0,-266.0,1536.0 
15.0,-298.0,1549.0 
15.0,-377.0,1517.0 
14.0,-379.0,1505.0 
23.0,-348.0,1534.0 
0.0,-329.0,1544.0 
38.0,-281.0,1513.0 
39.0,-269.0,1470.0 
-176.0,-230.0,1189.0 
0.0,-83.0,1354.0 
-72.0,-178.0,1326.0 
-37.0,-229.0,1355.0 
-64.0,-266.0,1304.0 
-102.0,-305.0,1161.0 
-98.0,-256.0,1149.0 
-43.0,-229.0,1143.0 
19.0,-259.0,1233.0 
103.0,-345.0,1418.0 
12.0,-285.0,1336.0 
-52.0,-254.0,1315.0 
-90.0,-178.0,1279.0 
-115.0,-135.0,1168.0 
-94.0,-156.0,1161.0 
-58.0,-163.0,1153.0 
-66.0,-178.0,1185.0 
-55.0,-207.0,1220.0 
-45.0,-209.0,1237.0 
-30.0,-219.0,1256.0 
-38.0,-222.0,1236.0 
-93.0,-172.0,1221.0 
-105.0,-112.0,1247.0 
-140.0,-73.0,1294.0 
-180.0,-44.0,1301.0 
-234.0,-48.0,1312.0 
-236.0,-74.0,1328.0 
-189.0,-83.0,1338.0 
-196.0,-146.0,1323.0 
-155.0,-128.0,1270.0 
-175.0,-95.0,1281.0 
-194.0,-70.0,1268.0 
-205.0,-39.0,1269.0 
-262.0,-1.0,1267.0 
-300.0,-9.0,1273.0 
-278.0,-14.0,1285.0 
-283.0,-58.0,1224.0 
-300.0,-80.0,1189.0 
-233.0,-34.0,1205.0 
-240.0,-46.0,1186.0 
-210.0,39.0,1206.0 
-241.0,74.0,1182.0 
-272.0,64.0,1168.0 
-281.0,59.0,1168.0 
-264.0,56.0,1150.0 
-252.0,57.0,1124.0 
-235.0,17.0,1099.0 
-229.0,20.0,1099.0 
-222.0,63.0,1050.0 
-173.0,52.0,1031.0 
-181.0,80.0,1037.0 
-130.0,128.0,1037.0 
-135.0,109.0,992.0 
-135.0,101.0,990.0 
-149.0,84.0,971.0 
-132.0,92.0,925.0 
-98.0,44.0,873.0 
-87.0,2.0,830.0 
-53.0,10.0,805.0 
5.0,50.0,811.0 
28.0,137.0,880.0 
37.0,170.0,949.0 
37.0,199.0,970.0 
39.0,207.0,971.0 
42.0,116.0,921.0 
74.0,76.0,888.0 
121.0,-7.0,838.0 
126.0,-69.0,786.0 
172.0,-69.0,772.0 
197.0,-86.0,760.0 
199.0,-55.0,808.0 
240.0,10.0,950.0 
259.0,64.0,1015.0 
259.0,117.0,1085.0 
229.0,106.0,1090.0 
203.0,74.0,1049.0 
197.0,43.0,1012.0 
225.0,0.0,985.0 
234.0,-36.0,966.0 
277.0,-52.0,984.0 
279.0,-58.0,1019.0 
313.0,-11.0,1075.0 
312.0,-2.0,1133.0 
281.0,5.0,1116.0 
285.0,11.0,1095.0 
262.0,-8.0,1089.0 
242.0,-42.0,1047.0 
245.0,-77.0,1074.0 
255.0,-89.0,1087.0 
261.0,-79.0,1100.0 
266.0,-57.0,1096.0 
269.0,-35.0,1115.0 
275.0,-35.0,1145.0 
276.0,-8.0,1167.0 
255.0,-25.0,1184.0 
232.0,-37.0,1181.0 
206.0,-36.0,1164.0 
179.0,-37.0,1129.0 
168.0,-23.0,1121.0 
171.0,-10.0,1138.0 
181.0,-3.0,1151.0 
183.0,6.0,1146.0 
182.0,13.0,1156.0 
186.0,11.0,1153.0 
171.0,6.0,1151.0 
148.0,-155.0,1137.0 
182.0,-125.0,1104.0 
142.0,-74.0,1213.0 
182.0,-96.0,1231.0 
147.0,-108.0,1219.0 
122.0,-39.0,1220.0 
95.0,-55.0,1196.0 
64.0,-10.0,1191.0 
61.0,-7.0,1198.0 
64.0,-7.0,1186.0 
66.0,-1.0,1209.0 
99.0,8.0,1207.0 
99.0,-7.0,1211.0 
98.0,-5.0,1208.0 
84.0,-21.0,1209.0 
83.0,-61.0,1159.0 
110.0,-53.0,1257.0 
100.0,-85.0,1222.0 
63.0,-87.0,1255.0 
50.0,-81.0,1253.0 
41.0,-69.0,1266.0 
56.0,-22.0,1297.0 
69.0,44.0,1342.0 
58.0,64.0,1374.0 
87.0,67.0,1404.0 
33.0,46.0,1368.0 
38.0,1.0,1405.0 
31.0,-8.0,1373.0 
7.0,-26.0,1360.0 
-24.0,-92.0,1286.0 
-44.0,-83.0,1296.0 
-36.0,-44.0,1294.0 
-13.0,10.0,1363.0 
-10.0,63.0,1412.0 
-52.0,96.0,1453.0 
-78.0,84.0,1450.0 
-71.0,71.0,1465.0 
-118.0,7.0,1352.0 
-140.0,-11.0,1310.0 
-78.0,71.0,1300.0 
-115.0,22.0,1269.0 
-125.0,60.0,1269.0 
-85.0,71.0,1285.0 
-72.0,83.0,1287.0 
-51.0,75.0,1283.0 
-70.0,51.0,1201.0 
-102.0,48.0,1178.0 
-119.0,61.0,1139.0 
-144.0,55.0,1117.0 
-136.0,100.0,1085.0 
-149.0,110.0,1045.0 
-116.0,126.0,1008.0 
-109.0,132.0,1050.0 
-117.0,197.0,1077.0 
-92.0,234.0,1083.0 
-117.0,202.0,1107.0 
-104.0,215.0,1119.0 
-73.0,191.0,1111.0 
-80.0,153.0,1064.0 
-79.0,145.0,1015.0 
-76.0,124.0,947.0 
-69.0,143.0,970.0 
-49.0,179.0,966.0 
-61.0,221.0,984.0 
-69.0,290.0,980.0 
-114.0,311.0,1005.0 
-98.0,328.0,1008.0 
-121.0,295.0,972.0 
-98.0,238.0,970.0 
-38.0,194.0,949.0 
-44.0,142.0,890.0 
-27.0,150.0,870.0 
-1.0,187.0,865.0 
-7.0,209.0,864.0 
-57.0,198.0,854.0 
-41.0,290.0,932.0 
-41.0,312.0,980.0 
-38.0,326.0,1005.0 
-40.0,286.0,956.0 
-38.0,270.0,915.0 
17.0,203.0,885.0 
19.0,184.0,847.0 
49.0,173.0,836.0 
50.0,148.0,837.0 
84.0,169.0,853.0 
73.0,166.0,856.0 
81.0,172.0,865.0 
81.0,135.0,814.0 
115.0,129.0,827.0 
128.0,124.0,770.0 
114.0,117.0,798.0 
161.0,97.0,791.0 
177.0,81.0,774.0 
177.0,82.0,782.0 
156.0,79.0,787.0 
161.0,37.0,747.0 
173.0,40.0,770.0 
187.0,25.0,758.0 
216.0,9.0,797.0 
279.0,-5.0,834.0 
298.0,24.0,859.0 
267.0,13.0,845.0 
226.0,43.0,878.0 
200.0,78.0,955.0 
177.0,54.0,969.0 
165.0,9.0,983.0 
156.0,-32.0,910.0 
253.0,-112.0,948.0 
319.0,-91.0,996.0 
341.0,-84.0,1043.0 
346.0,-65.0,1169.0 
345.0,-74.0,1196.0 
334.0,-91.0,1212.0 
307.0,-154.0,1207.0 
283.0,-186.0,1080.0 
218.0,-248.0,1046.0 
217.0,-272.0,1021.0 
339.0,-195.0,1079.0 
383.0,-111.0,1187.0 
392.0,-103.0,1227.0 
368.0,-94.0,1281.0 
355.0,-69.0,1370.0 
337.0,-137.0,1443.0 
255.0,-157.0,1425.0 
233.0,-167.0,1384.0 
220.0,-182.0,1366.0 
226.0,-179.0,1387.0 
287.0,-181.0,1390.0 
317.0,-152.0,1381.0 
309.0,-151.0,1380.0 
244.0,-148.0,1342.0 
206.0,-112.0,1373.0 
182.0,-80.0,1386.0 
176.0,-63.0,1391.0 
134.0,-64.0,1352.0 
155.0,-77.0,1349.0 
187.0,-69.0,1360.0 
213.0,-62.0,1330.0 
199.0,-74.0,1324.0 
175.0,-56.0,1310.0 
119.0,-75.0,1287.0 
64.0,-67.0,1284.0 
29.0,-32.0,1314.0 
-2.0,-18.0,1310.0 
-23.0,-16.0,1322.0 
-6.0,-37.0,1286.0 
3.0,-55.0,1278.0 
29.0,-61.0,1285.0 
34.0,-63.0,1274.0 
16.0,-3.0,1258.0 
20.0,-6.0,1262.0 
-18.0,-11.0,1253.0 
-40.0,37.0,1278.0 
-77.0,1.0,1273.0 
-98.0,14.0,1274.0 
-129.0,-17.0,1214.0 
-110.0,-17.0,1219.0 
-56.0,3.0,1240.0 
-33.0,6.0,1243.0 
-46.0,17.0,1240.0 
-73.0,10.0,1215.0 
-110.0,59.0,1232.0 
-92.0,56.0,1242.0 
-119.0,90.0,1198.0 
-158.0,53.0,1127.0 
-176.0,7.0,1076.0 
-199.0,-30.0,1040.0 
-187.0,-54.0,1042.0 
-146.0,-34.0,1116.0 
-154.0,38.0,1126.0 
-163.0,66.0,1143.0 
-162.0,105.0,1166.0 
-152.0,112.0,1148.0 
-192.0,73.0,1112.0 
-190.0,51.0,1096.0 
-185.0,21.0,1088.0 
-163.0,24.0,1121.0 
-137.0,18.0,1117.0 
-104.0,18.0,1134.0 
-101.0,4.0,1132.0 
-99.0,32.0,1120.0 
-92.0,38.0,1124.0 
-93.0,51.0,1118.0 
-96.0,63.0,1124.0 
-108.0,44.0,1106.0 
-144.0,-7.0,1069.0 
-106.0,-2.0,1045.0 
-76.0,-10.0,1069.0 
-29.0,-17.0,1084.0 
-17.0,31.0,1097.0 
-23.0,11.0,1136.0 
-4.0,31.0,1122.0 
-19.0,33.0,1130.0 
5.0,20.0,1134.0 
-11.0,-2.0,1122.0 
-23.0,12.0,1115.0 
-25.0,-10.0,1083.0 
-29.0,-19.0,1064.0 
-38.0,-24.0,1062.0 
1.0,-34.0,1122.0 
1.0,-19.0,1132.0 
8.0,-26.0,1130.0 
6.0,-31.0,1129.0 
9.0,-34.0,1127.0 
12.0,-44.0,1128.0 
10.0,-37.0,1131.0 
3.0,-34.0,1120.0 
2.0,-24.0,1119.0 
0.0,-9.0,1134.0 
-2.0,-1.0,1135.0 
-9.0,4.0,1142.0 
-4.0,-13.0,1134.0 
-2.0,-21.0,1125.0 
0.0,-25.0,1127.0 
12.0,-33.0,1132.0 
13.0,-53.0,1131.0 
9.0,-49.0,1128.0 
6.0,-47.0,1130.0 
17.0,-31.0,1142.0 
20.0,-22.0,1149.0 
9.0,-26.0,1142.0 
8.0,-28.0,1137.0 
11.0,-26.0,1126.0 
12.0,-33.0,1120.0 
15.0,-38.0,1116.0 
20.0,-36.0,1111.0 
32.0,-38.0,1113.0 
42.0,-31.0,1101.0 
46.0,-31.0,1098.0 
56.0,-35.0,1096.0 
70.0,-33.0,1100.0 
103.0,-61.0,1096.0 
130.0,-76.0,1108.0 
181.0,-102.0,1119.0 
219.0,-138.0,1110.0 
259.0,-143.0,1109.0 
303.0,-193.0,1106.0 
259.0,-218.0,1127.0 
333.0,-129.0,1281.0 
383.0,-22.0,1273.0 
248.0,-33.0,1306.0 
224.0,-7.0,1340.0 
223.0,12.0,1319.0 
115.0,-52.0,1350.0 
183.0,-23.0,1373.0 
180.0,-84.0,1414.0 
226.0,-164.0,1384.0 
239.0,-182.0,1429.0 
248.0,-192.0,1445.0 
232.0,-166.0,1458.0 
128.0,-209.0,1389.0 
60.0,-199.0,1395.0 
-35.0,-181.0,1420.0 
-15.0,-132.0,1460.0 
-52.0,-18.0,1533.0 
-13.0,27.0,1524.0 
-10.0,65.0,1546.0 
-9.0,59.0,1444.0 
-79.0,20.0,1399.0 
-97.0,-25.0,1367.0 
-110.0,-56.0,1360.0 
-119.0,-74.0,1310.0 
-157.0,-119.0,1267.0 
-136.0,-56.0,1260.0 
-127.0,9.0,1279.0 
-148.0,81.0,1276.0 
-154.0,112.0,1287.0 
-165.0,138.0,1312.0 
-160.0,123.0,1307.0 
-176.0,45.0,1141.0 
-200.0,17.0,1099.0 
-227.0,4.0,1050.0 
-233.0,36.0,1044.0 
-251.0,82.0,1068.0 
-227.0,126.0,1068.0 
-189.0,174.0,1085.0 
-163.0,185.0,1133.0 
-214.0,221.0,1148.0 
-206.0,247.0,1124.0 
-218.0,202.0,1125.0 
-256.0,135.0,1043.0 
-252.0,86.0,977.0 
-233.0,84.0,961.0 
-216.0,91.0,943.0 
-182.0,163.0,1029.0 
-164.0,248.0,1049.0 
-144.0,317.0,1080.0 
-140.0,306.0,1072.0 
-207.0,282.0,1008.0 
-245.0,209.0,952.0 
-260.0,149.0,887.0 
-230.0,115.0,860.0 
-170.0,110.0,878.0 
-116.0,144.0,892.0 
-94.0,215.0,921.0 
-97.0,272.0,946.0 
-121.0,341.0,928.0 
-136.0,345.0,903.0 
-116.0,315.0,891.0 
-103.0,286.0,874.0 
-95.0,194.0,802.0 
-72.0,186.0,795.0 
-86.0,177.0,758.0 
-77.0,193.0,759.0 
-23.0,284.0,845.0 
-31.0,284.0,856.0 
5.0,306.0,906.0 
19.0,285.0,936.0 
43.0,200.0,891.0 
47.0,134.0,847.0 
83.0,99.0,810.0 
107.0,61.0,724.0 
119.0,6.0,796.0 
115.0,-21.0,806.0 
162.0,27.0,857.0 
193.0,1.0,818.0 
270.0,-15.0,827.0 
290.0,-24.0,820.0 
309.0,-16.0,836.0 
326.0,-7.0,829.0 
276.0,-52.0,804.0 
275.0,-73.0,792.0 
286.0,-89.0,801.0 
283.0,-62.0,837.0 
281.0,-77.0,779.0 
315.0,-44.0,754.0 
358.0,-8.0,743.0 
392.0,91.0,741.0 
423.0,179.0,770.0 
324.0,229.0,796.0 
281.0,276.0,869.0 
211.0,145.0,909.0 
197.0,46.0,901.0 
224.0,-83.0,888.0 
290.0,-183.0,894.0 
452.0,-390.0,821.0 
567.0,-410.0,825.0 
678.0,-403.0,874.0 
698.0,-376.0,893.0 
487.0,-284.0,923.0 
414.0,-212.0,1000.0 
289.0,-204.0,1109.0 
265.0,-154.0,1308.0 
288.0,-258.0,1335.0 
334.0,-339.0,1312.0 
415.0,-348.0,1324.0 
501.0,-366.0,1347.0 
568.0,-337.0,1364.0 
517.0,-299.0,1398.0 
413.0,-249.0,1428.0 
337.0,-212.0,1566.0 
253.0,-149.0,1623.0 
206.0,-103.0,1617.0 
205.0,-111.0,1618.0 
171.0,-204.0,1517.0 
257.0,-226.0,1533.0 
278.0,-274.0,1540.0 
298.0,-256.0,1525.0 
292.0,-277.0,1481.0 
256.0,-285.0,1445.0 
257.0,-233.0,1470.0 
217.0,-211.0,1470.0 
128.0,-191.0,1397.0 
101.0,-193.0,1375.0 
86.0,-175.0,1373.0 
91.0,-167.0,1358.0 
83.0,-96.0,1345.0 
66.0,-81.0,1329.0 
52.0,-68.0,1330.0 
39.0,-38.0,1364.0 
7.0,-19.0,1337.0 
-19.0,-34.0,1309.0 
-36.0,-18.0,1305.0 
-66.0,-51.0,1263.0 
-93.0,-114.0,1229.0 
-86.0,-99.0,1217.0 
-80.0,-89.0,1220.0 
-88.0,-69.0,1212.0 
-96.0,17.0,1211.0 
-148.0,13.0,1197.0 
-169.0,52.0,1179.0 
-199.0,64.0,1216.0 
-265.0,74.0,1198.0 
-259.0,71.0,1160.0 
-266.0,72.0,1163.0 
-257.0,71.0,1114.0 
-217.0,91.0,1125.0 
-198.0,87.0,1142.0 
-222.0,69.0,1122.0 
-267.0,85.0,1135.0 
-265.0,88.0,1178.0 
-251.0,127.0,1203.0 
-239.0,95.0,1186.0 
-268.0,25.0,1121.0 
-255.0,14.0,1042.0 
-252.0,-4.0,984.0 
-256.0,-15.0,1030.0 
-102.0,31.0,1171.0 
-74.0,14.0,1182.0 
-78.0,-6.0,1172.0 
55.0,60.0,1113.0 
56.0,56.0,1103.0 
48.0,53.0,1089.0 
44.0,45.0,1084.0 
37.0,41.0,1079.0 
40.0,41.0,1089.0 
41.0,32.0,1117.0 
59.0,31.0,1114.0 
63.0,34.0,1126.0 
62.0,31.0,1117.0 
58.0,26.0,1106.0 
57.0,26.0,1128.0 
65.0,34.0,1141.0 
73.0,49.0,1157.0 
63.0,61.0,1131.0 
50.0,26.0,1105.0 
61.0,7.0,1086.0 
79.0,-15.0,1081.0 
101.0,-29.0,1086.0 
109.0,-37.0,1108.0 
138.0,-30.0,1130.0 
148.0,-51.0,1152.0 
144.0,-49.0,1138.0 
131.0,-34.0,1131.0 
147.0,-27.0,1121.0 
162.0,-14.0,1118.0 
196.0,-22.0,1135.0 
230.0,-42.0,1138.0 
229.0,-81.0,1132.0 
222.0,-112.0,1150.0 
255.0,-135.0,1218.0 
247.0,-158.0,1270.0 
259.0,-157.0,1303.0 
271.0,-119.0,1343.0 
250.0,-67.0,1307.0 
222.0,-30.0,1337.0 
222.0,-18.0,1376.0 
222.0,-19.0,1452.0 
139.0,-78.0,1448.0 
82.0,-129.0,1423.0 
13.0,-135.0,1476.0 
38.0,-80.0,1554.0 
2.0,3.0,1566.0 
-65.0,34.0,1567.0 
-98.0,17.0,1588.0 
-118.0,106.0,1628.0 
-187.0,115.0,1642.0 
-229.0,124.0,1604.0 
-245.0,135.0,1589.0 
-278.0,155.0,1440.0 
-337.0,153.0,1357.0 
-309.0,222.0,1410.0 
-235.0,251.0,1401.0 
-249.0,265.0,1442.0 
-240.0,273.0,1441.0 
-222.0,265.0,1468.0 
-265.0,261.0,1423.0 
-343.0,233.0,1267.0 
-377.0,243.0,1191.0 
-379.0,231.0,1155.0 
-362.0,248.0,1111.0 
-270.0,275.0,1129.0 
-222.0,300.0,1157.0 
-196.0,313.0,1150.0 
-210.0,324.0,1149.0 
-163.0,359.0,1118.0 
-193.0,350.0,1052.0 
-201.0,362.0,990.0 
-262.0,317.0,903.0 
-321.0,327.0,861.0 
-302.0,336.0,848.0 
-266.0,351.0,845.0 
-189.0,380.0,922.0 
-99.0,373.0,889.0 
-99.0,366.0,863.0 
-84.0,355.0,841.0 
-56.0,338.0,853.0 
-70.0,335.0,861.0 
-84.0,334.0,839.0 
-115.0,308.0,802.0 
-142.0,302.0,722.0 
-161.0,290.0,687.0 
-123.0,281.0,683.0 
-83.0,252.0,675.0 
-64.0,214.0,640.0 
9.0,205.0,633.0 
72.0,218.0,682.0 
89.0,186.0,719.0 
115.0,255.0,743.0 
96.0,255.0,737.0 
94.0,269.0,734.0 
75.0,247.0,678.0 
86.0,219.0,647.0 
101.0,198.0,617.0 
141.0,174.0,619.0 
138.0,107.0,606.0 
208.0,82.0,607.0 
244.0,58.0,616.0 
267.0,45.0,630.0 
283.0,52.0,662.0 
289.0,73.0,689.0 
283.0,69.0,708.0 
273.0,42.0,741.0 
257.0,-94.0,766.0 
226.0,-127.0,762.0 
267.0,-170.0,816.0 
332.0,-204.0,861.0 
372.0,-272.0,879.0 
463.0,-276.0,906.0 
480.0,-237.0,967.0 
459.0,-210.0,1003.0 
380.0,-177.0,1024.0 
259.0,-170.0,1046.0 
251.0,-154.0,1096.0 
286.0,-145.0,1143.0 
267.0,-176.0,1196.0 
265.0,-154.0,1231.0 
288.0,-168.0,1269.0 
320.0,-144.0,1307.0 
329.0,-96.0,1390.0 
306.0,-77.0,1391.0 
285.0,-65.0,1396.0 
255.0,-86.0,1383.0 
220.0,-148.0,1353.0 
213.0,-173.0,1348.0 
226.0,-181.0,1357.0 
247.0,-179.0,1377.0 
280.0,-146.0,1401.0 
286.0,-112.0,1437.0 
278.0,-96.0,1466.0 
257.0,-78.0,1493.0 
174.0,-55.0,1510.0 
136.0,-53.0,1511.0 
103.0,-56.0,1523.0 
128.0,-91.0,1508.0 
66.0,-82.0,1491.0 
70.0,-74.0,1508.0 
65.0,-62.0,1496.0 
67.0,-57.0,1463.0 
59.0,-32.0,1467.0 
64.0,-13.0,1471.0 
66.0,2.0,1467.0 
53.0,-8.0,1416.0 
31.0,-2.0,1357.0 
4.0,-13.0,1298.0 
-37.0,-17.0,1233.0 
-39.0,6.0,1231.0 
-25.0,24.0,1269.0 
-16.0,38.0,1296.0 
-30.0,61.0,1280.0 
-117.0,103.0,1209.0 
-125.0,139.0,1212.0 
-162.0,159.0,1177.0 
-158.0,180.0,1196.0 
-165.0,195.0,1171.0 
-188.0,196.0,1137.0 
-195.0,165.0,1133.0 
-218.0,160.0,1138.0 
-129.0,185.0,1173.0 
-125.0,204.0,1181.0 
-154.0,195.0,1148.0 
-191.0,224.0,1124.0 
-226.0,248.0,1131.0 
-222.0,268.0,1154.0 
-217.0,267.0,1164.0 
-222.0,236.0,1116.0 
-239.0,229.0,1098.0 
-207.0,209.0,1089.0 
-176.0,195.0,1084.0 
-160.0,149.0,1088.0 
-110.0,144.0,1072.0 
-102.0,142.0,1078.0 
-108.0,133.0,1063.0 
-96.0,129.0,1047.0 
-92.0,126.0,1058.0 
-96.0,142.0,1067.0 
-72.0,144.0,1089.0 
-69.0,156.0,1109.0 
-84.0,160.0,1091.0 
-89.0,138.0,1084.0 
-59.0,131.0,1105.0 
-17.0,113.0,1124.0 
0.0,110.0,1146.0 
5.0,102.0,1141.0 
0.0,92.0,1126.0 
-2.0,87.0,1133.0 
0.0,107.0,1137.0 
-14.0,87.0,1127.0 
-19.0,87.0,1107.0 
-12.0,90.0,1118.0 
6.0,90.0,1131.0 
25.0,100.0,1137.0 
32.0,93.0,1121.0 
34.0,70.0,1116.0 
47.0,58.0,1130.0 
61.0,51.0,1142.0 
56.0,34.0,1133.0 
43.0,36.0,1130.0 
41.0,33.0,1129.0 
39.0,44.0,1138.0 
111.0,-40.0,1080.0 
127.0,-36.0,1097.0 
115.0,-53.0,1094.0 
111.0,-76.0,1098.0 
101.0,-89.0,1115.0 
128.0,-72.0,1224.0 
159.0,-61.0,1236.0 
141.0,-58.0,1202.0 
123.0,-52.0,1158.0 
172.0,-25.0,1199.0 
160.0,-20.0,1238.0 
160.0,-40.0,1259.0 
153.0,-45.0,1334.0 
162.0,-61.0,1337.0 
150.0,-111.0,1375.0 
153.0,-89.0,1355.0 
121.0,-99.0,1338.0 
99.0,-86.0,1339.0 
94.0,-64.0,1360.0 
81.0,-33.0,1379.0 
54.0,-8.0,1375.0 
55.0,77.0,1379.0 
28.0,98.0,1360.0 
19.0,93.0,1378.0 
34.0,104.0,1409.0 
-43.0,115.0,1392.0 
-65.0,121.0,1404.0 
-68.0,133.0,1414.0 
-95.0,238.0,1482.0 
-115.0,285.0,1510.0 
-139.0,319.0,1494.0 
-189.0,314.0,1464.0 
-214.0,311.0,1445.0 
-176.0,289.0,1504.0 
-142.0,268.0,1488.0 
-142.0,240.0,1489.0 
-176.0,248.0,1363.0 
-177.0,201.0,1350.0 
-180.0,210.0,1312.0 
-194.0,271.0,1308.0 
-199.0,282.0,1278.0 
-213.0,283.0,1264.0 
-193.0,274.0,1263.0 
-193.0,284.0,1203.0 
-196.0,276.0,1177.0 
-190.0,286.0,1159.0 
-184.0,295.0,1131.0 
-196.0,283.0,1083.0 
-147.0,299.0,1068.0 
-149.0,306.0,1054.0 
-173.0,295.0,1025.0 
-124.0,301.0,999.0 
-112.0,266.0,956.0 
-93.0,265.0,920.0 
-67.0,253.0,905.0 
-31.0,274.0,867.0 
-28.0,261.0,862.0 
-31.0,279.0,841.0 
-18.0,289.0,836.0 
-23.0,306.0,806.0 
-39.0,317.0,779.0 
-47.0,327.0,733.0 
-36.0,326.0,743.0 
6.0,313.0,721.0 
44.0,295.0,691.0 
86.0,278.0,700.0 
96.0,260.0,666.0 
113.0,248.0,614.0 
145.0,275.0,628.0 
147.0,307.0,646.0 
152.0,340.0,693.0 
129.0,348.0,667.0 
116.0,318.0,659.0 
112.0,274.0,638.0 
138.0,233.0,643.0 
211.0,176.0,663.0 
242.0,146.0,646.0 
268.0,109.0,628.0 
304.0,81.0,690.0 
339.0,11.0,671.0 
339.0,-23.0,669.0 
343.0,-45.0,693.0 
355.0,-92.0,682.0 
330.0,-100.0,673.0 
313.0,-135.0,702.0 
322.0,-162.0,741.0 
311.0,-196.0,813.0 
355.0,-205.0,873.0 
389.0,-203.0,922.0 
414.0,-201.0,944.0 
418.0,-186.0,958.0 
408.0,-167.0,975.0 
399.0,-148.0,1006.0 
399.0,-111.0,1039.0 
410.0,-65.0,1102.0 
394.0,-48.0,1093.0 
377.0,-48.0,1061.0 
388.0,-48.0,1040.0 
383.0,-96.0,1049.0 
378.0,-106.0,1074.0 
364.0,-122.0,1117.0 
357.0,-120.0,1228.0 
362.0,-105.0,1263.0 
353.0,-90.0,1290.0 
336.0,-82.0,1294.0 
324.0,-71.0,1360.0 
298.0,-33.0,1402.0 
256.0,-38.0,1391.0 
216.0,0.0,1418.0 
214.0,15.0,1446.0 
224.0,0.0,1455.0 
214.0,-21.0,1449.0 
208.0,-41.0,1466.0 
190.0,-49.0,1490.0 
172.0,-54.0,1497.0 
171.0,-41.0,1509.0 
169.0,-21.0,1510.0 
157.0,22.0,1500.0 
94.0,37.0,1488.0 
104.0,25.0,1495.0 
89.0,32.0,1462.0 
90.0,6.0,1441.0 
99.0,9.0,1433.0 
98.0,8.0,1416.0 
92.0,11.0,1393.0 
66.0,26.0,1354.0 
-19.0,22.0,1269.0 
-50.0,50.0,1268.0 
-81.0,67.0,1358.0 
-79.0,113.0,1308.0 
-66.0,147.0,1345.0 
-59.0,159.0,1319.0 
-62.0,162.0,1258.0 
-79.0,155.0,1241.0 
-80.0,160.0,1243.0 
-82.0,155.0,1239.0 
-89.0,155.0,1203.0 
-115.0,147.0,1177.0 
-142.0,129.0,1158.0 
-152.0,140.0,1120.0 
-163.0,153.0,1097.0 
-180.0,158.0,1108.0 
-166.0,201.0,1102.0 
-160.0,213.0,1140.0 
-193.0,225.0,1101.0 
-172.0,234.0,1120.0 
-148.0,226.0,1140.0 
-145.0,222.0,1135.0 
-141.0,196.0,1112.0 
-154.0,188.0,1089.0 
-162.0,182.0,1091.0 
-165.0,180.0,1073.0 
-170.0,172.0,1056.0 
-158.0,168.0,1054.0 
-142.0,176.0,1070.0 
-125.0,179.0,1099.0 
-102.0,177.0,1099.0 
-93.0,173.0,1097.0 
-84.0,158.0,1095.0 
-78.0,141.0,1075.0 
-67.0,110.0,1093.0 
-64.0,107.0,1098.0 
-63.0,105.0,1100.0 
-54.0,120.0,1071.0 
-66.0,122.0,1067.0 
-58.0,129.0,1081.0 
-42.0,133.0,1114.0 
-30.0,125.0,1130.0 
-13.0,99.0,1141.0 
-18.0,86.0,1131.0 
-16.0,68.0,1132.0 
-9.0,63.0,1129.0 
0.0,59.0,1127.0 
2.0,55.0,1134.0 
11.0,56.0,1142.0 
21.0,61.0,1164.0 
18.0,50.0,1160.0 
6.0,58.0,1145.0 
4.0,56.0,1143.0 
25.0,69.0,1164.0 
13.0,53.0,1151.0 
5.0,47.0,1138.0 
2.0,35.0,1125.0 
2.0,27.0,1111.0 
3.0,32.0,1118.0 
19.0,30.0,1121.0 
19.0,35.0,1130.0 
27.0,50.0,1142.0 
27.0,58.0,1140.0 
25.0,66.0,1146.0 
22.0,71.0,1157.0 
-6.0,64.0,1151.0 
-13.0,55.0,1142.0 
-10.0,40.0,1131.0 
-13.0,25.0,1103.0 
-11.0,20.0,1091.0 
-5.0,32.0,1090.0 
0.0,37.0,1104.0 
17.0,62.0,1149.0 
22.0,62.0,1156.0 
2.0,11.0,1106.0 
8.0,15.0,1109.0 
11.0,20.0,1119.0 
15.0,21.0,1127.0 
-5.0,16.0,1131.0 
-9.0,12.0,1135.0 
-10.0,18.0,1134.0 
-28.0,15.0,1118.0 
-29.0,15.0,1118.0 
-25.0,24.0,1115.0 
-22.0,32.0,1108.0 
-25.0,2.0,1094.0 
-16.0,18.0,1119.0 
-1.0,11.0,1163.0 
-3.0,15.0,1163.0 
-14.0,12.0,1130.0 
-20.0,11.0,1137.0 
-5.0,26.0,1145.0 
0.0,16.0,1150.0 
4.0,6.0,1147.0 
21.0,-15.0,1137.0 
14.0,-8.0,1118.0 
40.0,-34.0,1137.0 
89.0,-56.0,1113.0 
119.0,-71.0,1135.0 
158.0,-93.0,1218.0 
226.0,-59.0,1466.0 
272.0,-45.0,1504.0 
230.0,-30.0,1468.0 
129.0,-20.0,1452.0 
81.0,-19.0,1317.0 
-15.0,-63.0,1345.0 
44.0,-31.0,1409.0 
99.0,-20.0,1482.0 
125.0,-38.0,1533.0 
119.0,-57.0,1493.0 
147.0,-28.0,1592.0 
110.0,-15.0,1631.0 
50.0,-3.0,1601.0 
-104.0,32.0,1584.0 
-160.0,77.0,1565.0 
-216.0,146.0,1542.0 
-219.0,239.0,1453.0 
-197.0,190.0,1468.0 
-175.0,212.0,1494.0 
-149.0,140.0,1456.0 
-130.0,130.0,1397.0 
-130.0,123.0,1369.0 
-152.0,150.0,1315.0 
-163.0,176.0,1287.0 
-202.0,206.0,1189.0 
-230.0,258.0,1142.0 
-286.0,329.0,1105.0 
-312.0,327.0,1043.0 
-260.0,389.0,1038.0 
-232.0,392.0,1042.0 
-194.0,406.0,1027.0 
-155.0,340.0,1042.0 
-120.0,338.0,999.0 
-126.0,329.0,952.0 
-142.0,323.0,888.0 
-176.0,304.0,781.0 
-204.0,363.0,767.0 
-180.0,364.0,763.0 
-160.0,408.0,804.0 
-116.0,380.0,826.0 
-62.0,381.0,818.0 
-46.0,379.0,786.0 
-30.0,352.0,753.0 
0.0,348.0,775.0 
52.0,348.0,781.0 
30.0,349.0,775.0 
9.0,344.0,758.0 
-3.0,339.0,700.0 
-51.0,310.0,664.0 
-50.0,275.0,639.0 
-31.0,230.0,624.0 
24.0,196.0,698.0 
192.0,191.0,736.0 
225.0,177.0,793.0 
270.0,195.0,813.0 
225.0,217.0,815.0 
197.0,252.0,821.0 
157.0,283.0,828.0 
108.0,300.0,815.0 
82.0,281.0,813.0 
116.0,230.0,815.0 
146.0,159.0,799.0 
185.0,74.0,768.0 
296.0,-54.0,795.0 
337.0,-102.0,809.0 
370.0,-114.0,805.0 
394.0,-105.0,811.0 
351.0,-76.0,843.0 
324.0,-38.0,835.0 
246.0,-47.0,772.0 
187.0,17.0,786.0 
144.0,-84.0,808.0 
208.0,-91.0,883.0 
275.0,-110.0,920.0 
327.0,-147.0,928.0 
364.0,-178.0,935.0 
389.0,-170.0,987.0 
388.0,-168.0,1007.0 
355.0,-134.0,979.0 
208.0,-124.0,929.0 
186.0,-158.0,894.0 
214.0,-164.0,890.0 
270.0,-162.0,961.0 
348.0,-152.0,1015.0 
367.0,-131.0,1058.0 
394.0,-132.0,1096.0 
370.0,-113.0,1176.0 
356.0,-70.0,1218.0 
326.0,-47.0,1262.0 
268.0,-25.0,1330.0 
163.0,-36.0,1364.0 
149.0,-45.0,1393.0 
139.0,-78.0,1386.0 
152.0,-117.0,1390.0 
205.0,-156.0,1393.0 
214.0,-153.0,1403.0 
187.0,-129.0,1448.0 
177.0,-95.0,1556.0 
141.0,-16.0,1583.0 
117.0,-7.0,1613.0 
18.0,23.0,1537.0 
-2.0,63.0,1534.0 
-2.0,25.0,1513.0 
16.0,7.0,1497.0 
40.0,-9.0,1475.0 
57.0,-5.0,1469.0 
80.0,15.0,1445.0 
48.0,-24.0,1459.0 
41.0,12.0,1436.0 
19.0,46.0,1385.0 
-40.0,27.0,1306.0 
-35.0,54.0,1252.0 
-50.0,34.0,1216.0 
-44.0,2.0,1158.0 
-34.0,-20.0,1194.0 
9.0,7.0,1239.0 
7.0,31.0,1268.0 
-30.0,96.0,1234.0 
-39.0,130.0,1234.0 
-67.0,143.0,1255.0 
-77.0,193.0,1223.0 
-109.0,181.0,1203.0 
-148.0,147.0,1186.0 
-128.0,128.0,1163.0 
-135.0,138.0,1160.0 
-105.0,157.0,1164.0 
-90.0,184.0,1187.0 
-92.0,194.0,1200.0 
-94.0,218.0,1246.0 
-129.0,253.0,1255.0 
-136.0,256.0,1279.0 
-150.0,243.0,1272.0 
-171.0,230.0,1215.0 
-182.0,210.0,1202.0 
-171.0,197.0,1191.0 
-160.0,174.0,1188.0 
-154.0,153.0,1121.0 
-167.0,161.0,1100.0 
-142.0,162.0,1118.0 
-110.0,150.0,1134.0 
-86.0,119.0,1149.0 
-65.0,112.0,1133.0 
-54.0,99.0,1138.0 
-48.0,95.0,1137.0 
-32.0,88.0,1114.0 
-59.0,74.0,1097.0 
-43.0,93.0,1110.0 
-24.0,95.0,1142.0 
-36.0,92.0,1138.0 
-40.0,87.0,1122.0 
-34.0,87.0,1105.0 
-17.0,86.0,1101.0 
5.0,79.0,1070.0 
9.0,74.0,1052.0 
-1.0,73.0,1045.0 
12.0,70.0,1040.0 
21.0,58.0,1041.0 
29.0,54.0,1042.0 
42.0,49.0,1046.0 
52.0,23.0,1046.0 
53.0,6.0,1032.0 
47.0,48.0,1131.0 
94.0,43.0,1062.0 
51.0,39.0,1075.0 
55.0,42.0,1083.0 
59.0,41.0,1052.0 
43.0,52.0,1091.0 
60.0,40.0,1073.0 
66.0,45.0,1083.0 
73.0,46.0,1086.0 
77.0,40.0,1099.0 
85.0,52.0,1109.0 
79.0,46.0,1117.0 
69.0,35.0,1118.0 
20.0,-3.0,1130.0 
15.0,1.0,1124.0 
11.0,1.0,1109.0 
7.0,0.0,1107.0 
17.0,-3.0,1121.0 
28.0,-8.0,1127.0 
27.0,-15.0,1131.0 
28.0,-33.0,1129.0 
26.0,-33.0,1129.0 
31.0,-31.0,1143.0 
43.0,-9.0,1141.0 
36.0,-37.0,1127.0 
48.0,-45.0,1128.0 
65.0,-56.0,1143.0 
59.0,-62.0,1144.0 
43.0,-71.0,1133.0 
45.0,-54.0,1144.0 
71.0,-40.0,1179.0 
75.0,-36.0,1179.0 
109.0,-38.0,1194.0 
120.0,-55.0,1189.0 
134.0,-81.0,1185.0 
129.0,-106.0,1159.0 
127.0,-153.0,1174.0 
148.0,-158.0,1211.0 
176.0,-156.0,1265.0 
202.0,-126.0,1299.0 
177.0,-106.0,1282.0 
181.0,-64.0,1275.0 
151.0,-53.0,1290.0 
136.0,-39.0,1400.0 
146.0,-49.0,1447.0 
139.0,-49.0,1486.0 
148.0,-59.0,1532.0 
133.0,-89.0,1494.0 
53.0,-92.0,1435.0 
15.0,-61.0,1377.0 
-16.0,-19.0,1348.0 
12.0,35.0,1380.0 
6.0,62.0,1455.0 
18.0,99.0,1496.0 
26.0,129.0,1517.0 
-33.0,180.0,1459.0 
-78.0,165.0,1425.0 
-112.0,176.0,1361.0 
-149.0,211.0,1336.0 
-166.0,243.0,1345.0 
-138.0,258.0,1330.0 
-147.0,254.0,1344.0 
-148.0,247.0,1302.0 
-123.0,203.0,1259.0 
-128.0,206.0,1207.0 
-143.0,194.0,1189.0 
-113.0,195.0,1209.0 
-71.0,238.0,1209.0 
-80.0,296.0,1193.0 
-112.0,323.0,1168.0 
-122.0,360.0,1093.0 
-181.0,381.0,1051.0 
-196.0,384.0,1032.0 
-173.0,392.0,1030.0 
-157.0,378.0,1020.0 
-125.0,365.0,1009.0 
-123.0,349.0,1007.0 
-95.0,366.0,1014.0 
-90.0,357.0,964.0 
-93.0,338.0,939.0 
-91.0,335.0,927.0 
-76.0,339.0,920.0 
-108.0,387.0,938.0 
-109.0,398.0,893.0 
-146.0,423.0,855.0 
-147.0,413.0,858.0 
-75.0,393.0,873.0 
-22.0,373.0,884.0 
21.0,366.0,871.0 
27.0,364.0,822.0 
-2.0,309.0,825.0 
-12.0,312.0,809.0 
-34.0,317.0,816.0 
-34.0,326.0,805.0 
-32.0,333.0,772.0 
-19.0,324.0,737.0 
13.0,296.0,731.0 
64.0,227.0,748.0 
148.0,221.0,767.0 
168.0,209.0,771.0 
165.0,197.0,773.0 
146.0,230.0,752.0 
142.0,241.0,784.0 
168.0,267.0,826.0 
161.0,246.0,797.0 
150.0,158.0,721.0 
169.0,93.0,697.0 
218.0,38.0,691.0 
247.0,-30.0,659.0 
318.0,-93.0,618.0 
328.0,-111.0,650.0 
335.0,-89.0,701.0 
337.0,-31.0,747.0 
308.0,23.0,817.0 
300.0,41.0,874.0 
266.0,15.0,875.0 
257.0,-26.0,856.0 
279.0,-135.0,852.0 
315.0,-185.0,827.0 
357.0,-213.0,834.0 
399.0,-230.0,912.0 
426.0,-208.0,941.0 
412.0,-165.0,986.0 
383.0,-129.0,1053.0 
331.0,-88.0,1114.0 
169.0,-32.0,1061.0 
155.0,-72.0,1063.0 
204.0,-83.0,1083.0 
257.0,-187.0,1100.0 
389.0,-222.0,1134.0 
421.0,-231.0,1139.0 
425.0,-257.0,1150.0 
405.0,-284.0,1204.0 
298.0,-290.0,1232.0 
219.0,-292.0,1250.0 
168.0,-258.0,1261.0 
128.0,-160.0,1375.0 
111.0,-115.0,1429.0 
133.0,-80.0,1436.0 
190.0,-98.0,1478.0 
223.0,-70.0,1494.0 
220.0,-97.0,1519.0 
200.0,-110.0,1518.0 
161.0,-155.0,1461.0 
93.0,-194.0,1452.0 
74.0,-198.0,1444.0 
63.0,-198.0,1427.0 
82.0,-190.0,1392.0 
94.0,-180.0,1411.0 
119.0,-163.0,1435.0 
111.0,-165.0,1413.0 
97.0,-159.0,1401.0 
15.0,-113.0,1365.0 
-25.0,-89.0,1343.0 
-44.0,-42.0,1333.0 
-13.0,44.0,1372.0 
0.0,54.0,1366.0 
6.0,77.0,1363.0 
24.0,71.0,1346.0 
17.0,62.0,1287.0 
17.0,47.0,1290.0 
-62.0,3.0,1212.0 
-51.0,11.0,1209.0 
-58.0,40.0,1205.0 
-85.0,75.0,1214.0 
-67.0,99.0,1241.0 
-70.0,110.0,1252.0 
-109.0,126.0,1244.0 
-104.0,121.0,1261.0 
-98.0,130.0,1290.0 
-105.0,134.0,1283.0 
-120.0,168.0,1265.0 
-133.0,154.0,1206.0 
-150.0,148.0,1167.0 
-131.0,154.0,1156.0 
-105.0,148.0,1154.0 
-72.0,135.0,1182.0 
-67.0,130.0,1189.0 
-84.0,112.0,1156.0 
-101.0,108.0,1167.0 
-71.0,98.0,1202.0 
-138.0,103.0,1160.0 
-124.0,112.0,1189.0 
-115.0,137.0,1199.0 
-123.0,135.0,1184.0 
-130.0,143.0,1150.0 
-135.0,132.0,1135.0 
-92.0,145.0,1154.0 
-69.0,138.0,1144.0 
-70.0,111.0,1134.0 
-83.0,86.0,1098.0 
-105.0,88.0,1064.0 
-102.0,77.0,1041.0 
-99.0,73.0,1032.0 
-98.0,55.0,1026.0 
-37.0,68.0,1046.0 
-6.0,75.0,1068.0 
-1.0,82.0,1063.0 
-18.0,86.0,1049.0 
-6.0,106.0,1049.0 
-25.0,97.0,1067.0 
-25.0,104.0,1078.0 
-31.0,107.0,1086.0 
-40.0,99.0,1089.0 
-31.0,87.0,1075.0 
-40.0,76.0,1015.0 
-7.0,52.0,1013.0 
5.0,51.0,1040.0 
28.0,55.0,1078.0 
31.0,56.0,1122.0 
11.0,65.0,1120.0 
4.0,67.0,1122.0 
-1.0,63.0,1135.0 
5.0,1.0,1149.0 
7.0,0.0,1148.0 
9.0,0.0,1140.0 
0.0,-4.0,1129.0 
3.0,0.0,1123.0 
3.0,1.0,1128.0 
-4.0,8.0,1129.0 
-1.0,12.0,1131.0 
2.0,12.0,1134.0 
6.0,26.0,1144.0 
0.0,20.0,1139.0 
-6.0,25.0,1141.0 
-5.0,19.0,1124.0 
-2.0,15.0,1139.0 
-2.0,11.0,1129.0 
-6.0,3.0,1129.0 
0.0,0.0,1104.0 
9.0,-6.0,1119.0 
7.0,-1.0,1116.0 
11.0,0.0,1120.0 
4.0,8.0,1124.0 
0.0,9.0,1126.0 
-1.0,15.0,1122.0 
0.0,9.0,1122.0 
2.0,-11.0,1124.0 
24.0,-7.0,1117.0 
34.0,-22.0,1108.0 
34.0,-37.0,1097.0 
42.0,-63.0,1085.0 
49.0,-50.0,1063.0 
55.0,-54.0,1066.0 
75.0,-69.0,1056.0 
104.0,-90.0,1092.0 
178.0,-103.0,1123.0 
224.0,-115.0,1161.0 
247.0,-145.0,1175.0 
186.0,-200.0,1123.0 
165.0,-206.0,1130.0 
162.0,-180.0,1149.0 
161.0,-159.0,1185.0 
195.0,-71.0,1270.0 
197.0,-68.0,1329.0 
206.0,-46.0,1357.0 
206.0,-43.0,1411.0 
223.0,9.0,1440.0 
157.0,-26.0,1423.0 
196.0,14.0,1494.0 
141.0,-46.0,1449.0 
65.0,-103.0,1456.0 
58.0,-110.0,1461.0 
40.0,-133.0,1427.0 
31.0,-112.0,1457.0 
12.0,-57.0,1406.0 
1.0,-11.0,1542.0 
2.0,48.0,1576.0 
-21.0,128.0,1627.0 
-138.0,158.0,1612.0 
-143.0,155.0,1611.0 
-169.0,167.0,1554.0 
-205.0,141.0,1411.0 
-197.0,155.0,1366.0 
-201.0,163.0,1344.0 
-185.0,180.0,1318.0 
-177.0,270.0,1304.0 
-236.0,302.0,1284.0 
-258.0,340.0,1277.0 
-265.0,361.0,1299.0 
-256.0,351.0,1298.0 
-253.0,381.0,1333.0 
-259.0,339.0,1256.0 
-274.0,330.0,1161.0 
-254.0,317.0,1113.0 
-251.0,312.0,1054.0 
-212.0,311.0,1036.0 
-201.0,350.0,1061.0 
-205.0,379.0,1069.0 
-197.0,411.0,1073.0 
-225.0,408.0,1022.0 
-206.0,441.0,992.0 
-252.0,445.0,948.0 
-214.0,405.0,946.0 
-185.0,391.0,943.0 
-167.0,344.0,858.0 
-119.0,320.0,855.0 
-60.0,345.0,860.0 
-33.0,349.0,853.0 
-9.0,361.0,844.0 
-24.0,412.0,796.0 
-70.0,390.0,866.0 
-82.0,437.0,826.0 
-108.0,393.0,768.0 
-99.0,361.0,764.0 
-53.0,324.0,757.0 
-19.0,302.0,763.0 
63.0,252.0,755.0 
78.0,241.0,746.0 
84.0,203.0,723.0 
113.0,193.0,734.0 
127.0,206.0,703.0 
96.0,200.0,697.0 
62.0,178.0,654.0 
35.0,149.0,599.0 
115.0,116.0,625.0 
161.0,87.0,642.0 
214.0,70.0,645.0 
253.0,55.0,644.0 
302.0,47.0,626.0 
315.0,68.0,639.0 
314.0,90.0,645.0 
285.0,69.0,631.0 
252.0,-19.0,624.0 
249.0,-40.0,638.0 
235.0,-76.0,632.0 
234.0,-110.0,705.0 
282.0,-118.0,743.0 
339.0,-104.0,803.0 
383.0,-111.0,874.0 
422.0,-113.0,962.0 
368.0,-121.0,981.0 
333.0,-110.0,991.0 
289.0,-108.0,1006.0 
263.0,-145.0,1002.0 
258.0,-206.0,995.0 
273.0,-237.0,990.0 
276.0,-255.0,999.0 
339.0,-252.0,1040.0 
365.0,-234.0,1044.0 
416.0,-202.0,1077.0 
475.0,-160.0,1162.0 
443.0,-37.0,1167.0 
373.0,-1.0,1155.0 
339.0,35.0,1213.0 
296.0,50.0,1297.0 
220.0,-22.0,1299.0 
235.0,-58.0,1279.0 
238.0,-115.0,1317.0 
283.0,-147.0,1324.0 
355.0,-166.0,1334.0 
348.0,-157.0,1354.0 
339.0,-115.0,1365.0 
304.0,-70.0,1418.0 
199.0,-47.0,1453.0 
168.0,-87.0,1475.0 
133.0,-63.0,1481.0 
112.0,-54.0,1494.0 
116.0,-16.0,1534.0 
123.0,-22.0,1599.0 
135.0,-4.0,1590.0 
124.0,-21.0,1504.0 
79.0,-21.0,1478.0 
52.0,-41.0,1409.0 
8.0,-44.0,1340.0 
8.0,-79.0,1276.0 
59.0,-102.0,1288.0 
73.0,-100.0,1305.0 
76.0,-84.0,1329.0 
35.0,-22.0,1357.0 
0.0,13.0,1404.0 
-34.0,40.0,1400.0 
-72.0,72.0,1407.0 
-180.0,150.0,1355.0 
-180.0,187.0,1339.0 
-159.0,199.0,1360.0 
-135.0,199.0,1356.0 
-88.0,153.0,1367.0 
-81.0,138.0,1358.0 
-100.0,126.0,1320.0 
-120.0,123.0,1294.0 
-169.0,153.0,1293.0 
-169.0,165.0,1307.0 
-186.0,163.0,1299.0 
-226.0,158.0,1283.0 
-215.0,178.0,1300.0 
-203.0,158.0,1296.0 
-212.0,138.0,1278.0 
-206.0,123.0,1245.0 
-198.0,127.0,1221.0 
-195.0,133.0,1205.0 
-177.0,137.0,1202.0 
-170.0,151.0,1159.0 
-181.0,183.0,1139.0 
-169.0,175.0,1129.0 
-165.0,177.0,1112.0 
-178.0,169.0,1052.0 
-183.0,137.0,1039.0 
-160.0,119.0,1019.0 
-138.0,129.0,979.0 
-105.0,107.0,935.0 
-86.0,105.0,914.0 
-55.0,102.0,921.0 
-19.0,107.0,953.0 
-18.0,97.0,935.0 
-33.0,95.0,945.0 
-49.0,97.0,918.0 
-60.0,93.0,906.0 
-67.0,108.0,894.0 
-67.0,110.0,899.0 
-57.0,116.0,911.0 
-16.0,128.0,943.0 
0.0,122.0,962.0 
9.0,48.0,1136.0 
11.0,46.0,1134.0 
11.0,42.0,1131.0 
-7.0,30.0,1111.0 
-4.0,18.0,1106.0 
0.0,9.0,1111.0 
4.0,12.0,1122.0 
16.0,14.0,1143.0 
23.0,21.0,1144.0 
18.0,19.0,1136.0 
11.0,16.0,1108.0 
8.0,29.0,1118.0 
10.0,25.0,1125.0 
6.0,22.0,1125.0 
12.0,22.0,1132.0 
25.0,12.0,1123.0 
18.0,9.0,1117.0 
31.0,-1.0,1118.0 
33.0,0.0,1122.0 
46.0,-3.0,1116.0 
45.0,-10.0,1105.0 
61.0,-14.0,1101.0 
99.0,-52.0,1082.0 
138.0,-77.0,1059.0 
168.0,-101.0,1067.0 
174.0,-136.0,1062.0 
165.0,-177.0,1098.0 
202.0,-195.0,1129.0 
199.0,-193.0,1139.0 
215.0,-170.0,1178.0 
260.0,-123.0,1324.0 
294.0,-105.0,1399.0 
294.0,-30.0,1492.0 
269.0,-60.0,1550.0 
171.0,-41.0,1525.0 
96.0,-108.0,1475.0 
60.0,-112.0,1436.0 
42.0,-150.0,1455.0 
85.0,-147.0,1455.0 
83.0,-145.0,1480.0 
113.0,-81.0,1503.0 
122.0,-40.0,1518.0 
53.0,25.0,1507.0 
17.0,58.0,1514.0 
-54.0,67.0,1517.0 
-128.0,98.0,1486.0 
-189.0,124.0,1465.0 
-210.0,131.0,1436.0 
-185.0,160.0,1413.0 
-152.0,184.0,1383.0 
-106.0,214.0,1319.0 
-125.0,200.0,1317.0 
-143.0,245.0,1326.0 
-192.0,355.0,1287.0 
-313.0,383.0,1262.0 
-353.0,392.0,1259.0 
-350.0,409.0,1275.0 
-310.0,406.0,1269.0 
-256.0,367.0,1226.0 
-250.0,318.0,1170.0 
-242.0,295.0,1117.0 
-228.0,334.0,1055.0 
-236.0,423.0,1070.0 
-254.0,456.0,1052.0 
-283.0,513.0,1029.0 
-309.0,495.0,1021.0 
-310.0,477.0,1001.0 
-281.0,424.0,983.0 
-249.0,379.0,941.0 
-171.0,337.0,943.0 
-138.0,347.0,949.0 
-108.0,370.0,924.0 
-115.0,393.0,916.0 
-174.0,485.0,907.0 
-198.0,509.0,904.0 
-216.0,505.0,889.0 
-216.0,436.0,820.0 
-161.0,385.0,798.0 
-125.0,338.0,780.0 
-96.0,311.0,770.0 
-52.0,331.0,789.0 
-30.0,316.0,792.0 
-32.0,331.0,788.0 
-51.0,339.0,767.0 
-45.0,352.0,777.0 
-28.0,323.0,770.0 
-12.0,300.0,772.0 
-3.0,258.0,761.0 
53.0,174.0,738.0 
112.0,170.0,764.0 
144.0,171.0,789.0 
153.0,164.0,810.0 
161.0,195.0,844.0 
172.0,204.0,853.0 
134.0,191.0,836.0 
112.0,159.0,726.0 
121.0,69.0,683.0 
150.0,3.0,655.0 
198.0,-50.0,642.0 
252.0,-82.0,651.0 
378.0,-76.0,684.0 
412.0,-38.0,725.0 
406.0,20.0,756.0 
355.0,65.0,844.0 
207.0,150.0,852.0 
178.0,143.0,849.0 
147.0,150.0,877.0 
123.0,37.0,894.0 
220.0,-59.0,922.0 
274.0,-97.0,939.0 
299.0,-158.0,981.0 
317.0,-160.0,976.0 
379.0,-93.0,996.0 
343.0,-74.0,1005.0 
308.0,-30.0,980.0 
281.0,15.0,1035.0 
228.0,-34.0,1032.0 
225.0,-78.0,1045.0 
227.0,-147.0,1063.0 
317.0,-248.0,1067.0 
353.0,-238.0,1078.0 
425.0,-210.0,1105.0 
429.0,-136.0,1185.0 
350.0,-56.0,1218.0 
271.0,-45.0,1234.0 
211.0,-63.0,1237.0 
153.0,-104.0,1268.0 
192.0,-187.0,1310.0 
204.0,-263.0,1309.0 
224.0,-268.0,1313.0 
279.0,-230.0,1425.0 
284.0,-113.0,1461.0 
253.0,-79.0,1457.0 
192.0,-30.0,1449.0 
116.0,-56.0,1367.0 
64.0,-92.0,1332.0 
88.0,-121.0,1286.0 
146.0,-139.0,1297.0 
157.0,-97.0,1303.0 
176.0,-48.0,1352.0 
178.0,6.0,1403.0 
159.0,51.0,1423.0 
137.0,105.0,1373.0 
15.0,77.0,1346.0 
7.0,55.0,1307.0 
-21.0,16.0,1254.0 
-43.0,-41.0,1248.0 
-20.0,-1.0,1294.0 
-18.0,49.0,1323.0 
-5.0,128.0,1360.0 
-61.0,186.0,1417.0 
-89.0,219.0,1406.0 
-114.0,250.0,1422.0 
-151.0,237.0,1407.0 
-199.0,202.0,1354.0 
-194.0,169.0,1306.0 
-180.0,146.0,1303.0 
-149.0,129.0,1341.0 
-126.0,105.0,1358.0 
-119.0,113.0,1378.0 
-123.0,122.0,1391.0 
-127.0,143.0,1383.0 
-180.0,196.0,1356.0 
-233.0,202.0,1326.0 
-277.0,205.0,1279.0 
-296.0,153.0,1290.0 
-213.0,160.0,1291.0 
-206.0,139.0,1248.0 
-211.0,139.0,1232.0 
-182.0,143.0,1172.0 
-183.0,153.0,1160.0 
-183.0,153.0,1155.0 
-183.0,155.0,1143.0 
-183.0,161.0,1124.0 
-185.0,156.0,1094.0 
-184.0,162.0,1068.0 
-168.0,159.0,1042.0 
-135.0,157.0,1001.0 
-136.0,164.0,963.0 
-139.0,145.0,928.0 
-132.0,146.0,922.0 
-94.0,125.0,962.0 
-87.0,119.0,977.0 
-100.0,108.0,972.0 
-83.0,121.0,984.0 
-104.0,93.0,980.0 
-51.0,119.0,1000.0 
-65.0,95.0,993.0 
-65.0,105.0,1003.0 
-53.0,99.0,1032.0 
-42.0,91.0,1036.0 
-40.0,90.0,1042.0 
-39.0,89.0,1036.0 
-22.0,79.0,1069.0 
-3.0,69.0,1089.0 
10.0,68.0,1089.0 
23.0,68.0,1160.0 
33.0,84.0,1152.0 
16.0,75.0,1146.0 
-4.0,85.0,1124.0 
-30.0,48.0,1162.0 
-31.0,44.0,1147.0 
-22.0,19.0,1138.0 
-14.0,11.0,1126.0 
-15.0,0.0,1122.0 
-12.0,-19.0,1105.0 
-6.0,-22.0,1110.0 
-4.0,-21.0,1117.0 
-5.0,-11.0,1123.0 
-13.0,25.0,1147.0 
-28.0,40.0,1149.0 
-33.0,48.0,1150.0 
-30.0,33.0,1146.0 
-20.0,4.0,1121.0 
3.0,-21.0,1104.0 
3.0,-23.0,1106.0 
3.0,-28.0,1105.0 
-5.0,-32.0,1111.0 
5.0,-15.0,1139.0 
19.0,-7.0,1152.0 
16.0,-7.0,1151.0 
18.0,-25.0,1129.0 
43.0,-41.0,1128.0 
71.0,-56.0,1125.0 
79.0,-84.0,1103.0 
76.0,-149.0,1082.0 
75.0,-156.0,1086.0 
83.0,-162.0,1098.0 
90.0,-154.0,1154.0 
134.0,-122.0,1205.0 
144.0,-114.0,1221.0 
126.0,-120.0,1249.0 
115.0,-92.0,1301.0 
108.0,-78.0,1315.0 
101.0,-59.0,1333.0 
115.0,-46.0,1374.0 
108.0,-55.0,1344.0 
84.0,-79.0,1326.0 
82.0,-85.0,1332.0 
83.0,-81.0,1339.0 
78.0,-72.0,1369.0 
41.0,-43.0,1392.0 
29.0,-10.0,1411.0 
18.0,24.0,1425.0 
-16.0,67.0,1434.0 
-34.0,71.0,1423.0 
-48.0,87.0,1396.0 
-51.0,105.0,1359.0 
-71.0,103.0,1337.0 
-65.0,144.0,1337.0 
-71.0,155.0,1353.0 
-92.0,170.0,1356.0 
-144.0,203.0,1386.0 
-125.0,222.0,1422.0 
-136.0,217.0,1416.0 
-171.0,219.0,1419.0 
-161.0,259.0,1422.0 
-181.0,206.0,1375.0 
-201.0,232.0,1308.0 
-212.0,249.0,1309.0 
-188.0,307.0,1310.0 
-175.0,310.0,1283.0 
-207.0,315.0,1231.0 
-231.0,314.0,1156.0 
-210.0,316.0,1165.0 
-200.0,292.0,1171.0 
-177.0,283.0,1187.0 
-161.0,279.0,1180.0 
-151.0,305.0,1173.0 
-145.0,309.0,1159.0 
-141.0,315.0,1123.0 
-155.0,317.0,995.0 
-139.0,341.0,969.0 
-127.0,303.0,941.0 
-94.0,419.0,978.0 
-136.0,435.0,936.0 
-140.0,399.0,924.0 
-117.0,383.0,946.0 
-93.0,382.0,949.0 
-52.0,335.0,940.0 
-62.0,313.0,910.0 
-53.0,315.0,892.0 
-38.0,327.0,869.0 
-60.0,408.0,876.0 
-55.0,440.0,895.0 
-70.0,475.0,916.0 
-93.0,459.0,886.0 
-92.0,427.0,857.0 
-54.0,385.0,844.0 
-43.0,353.0,824.0 
-28.0,318.0,789.0 
25.0,304.0,793.0 
27.0,315.0,779.0 
29.0,313.0,771.0 
46.0,324.0,783.0 
50.0,346.0,809.0 
57.0,351.0,811.0 
60.0,350.0,790.0 
49.0,289.0,735.0 
85.0,249.0,708.0 
96.0,217.0,694.0 
111.0,182.0,679.0 
120.0,138.0,702.0 
155.0,129.0,725.0 
163.0,138.0,743.0 
190.0,144.0,762.0 
196.0,130.0,788.0 
192.0,103.0,774.0 
198.0,87.0,761.0 
186.0,55.0,677.0 
214.0,6.0,693.0 
214.0,-26.0,681.0 
215.0,-37.0,676.0 
204.0,-46.0,694.0 
239.0,-87.0,763.0 
268.0,-111.0,803.0 
302.0,-127.0,826.0 
310.0,-152.0,829.0 
323.0,-142.0,817.0 
312.0,-150.0,835.0 
293.0,-146.0,858.0 
280.0,-145.0,973.0 
261.0,-188.0,1057.0 
263.0,-213.0,1110.0 
290.0,-195.0,1160.0 
299.0,-184.0,1210.0 
322.0,-198.0,1186.0 
367.0,-116.0,1244.0 
330.0,-153.0,1199.0 
300.0,-188.0,1086.0 
317.0,-225.0,1093.0 
340.0,-228.0,1104.0 
339.0,-232.0,1118.0 
324.0,-174.0,1152.0 
305.0,-150.0,1173.0 
291.0,-117.0,1207.0 
288.0,-79.0,1267.0 
250.0,-59.0,1317.0 
229.0,-93.0,1322.0 
187.0,-110.0,1280.0 
190.0,-158.0,1265.0 
182.0,-193.0,1294.0 
206.0,-167.0,1336.0 
197.0,-166.0,1366.0 
182.0,-127.0,1444.0 
175.0,-61.0,1496.0 
144.0,-25.0,1523.0 
113.0,-12.0,1528.0 
102.0,-8.0,1515.0 
58.0,-10.0,1457.0 
29.0,-50.0,1411.0 
16.0,-76.0,1385.0 
6.0,-100.0,1380.0 
30.0,-111.0,1384.0 
47.0,-99.0,1390.0 
51.0,-74.0,1415.0 
35.0,-1.0,1425.0 
-17.0,30.0,1422.0 
-27.0,55.0,1416.0 
-6.0,53.0,1422.0 
-105.0,94.0,1275.0 
-117.0,74.0,1274.0 
-113.0,75.0,1282.0 
-102.0,80.0,1294.0 
-95.0,48.0,1288.0 
-99.0,49.0,1304.0 
-80.0,58.0,1317.0 
-78.0,81.0,1282.0 
-150.0,131.0,1285.0 
-164.0,165.0,1284.0 
-171.0,178.0,1307.0 
-149.0,212.0,1297.0 
-142.0,198.0,1297.0 
-149.0,178.0,1263.0 
-156.0,151.0,1214.0 
-166.0,128.0,1165.0 
-164.0,125.0,1165.0 
-175.0,131.0,1169.0 
-164.0,137.0,1190.0 
-165.0,203.0,1196.0 
-187.0,197.0,1201.0 
-165.0,212.0,1214.0 
-163.0,224.0,1213.0 
-148.0,148.0,1185.0 
-110.0,146.0,1130.0 
-103.0,110.0,1093.0 
-85.0,97.0,1066.0 
-78.0,100.0,1059.0 
-60.0,118.0,1063.0 
-76.0,122.0,1059.0 
-68.0,103.0,1067.0 
-53.0,93.0,1059.0 
-69.0,82.0,1045.0 
-68.0,77.0,1015.0 
-60.0,73.0,988.0 
-18.0,66.0,977.0 
25.0,72.0,1009.0 
55.0,78.0,1041.0 
60.0,73.0,1046.0 
18.0,78.0,1045.0 
25.0,53.0,1137.0 
27.0,54.0,1131.0 
27.0,55.0,1126.0 
28.0,57.0,1108.0 
17.0,41.0,1109.0 
24.0,41.0,1110.0 
28.0,38.0,1127.0 
37.0,23.0,1116.0 
22.0,11.0,1107.0 
32.0,7.0,1107.0 
32.0,3.0,1106.0 
42.0,-3.0,1110.0 
45.0,1.0,1119.0 
51.0,-1.0,1126.0 
58.0,3.0,1139.0 
67.0,-17.0,1148.0 
84.0,-20.0,1138.0 
63.0,-56.0,1117.0 
46.0,-76.0,1097.0 
50.0,-70.0,1108.0 
58.0,-51.0,1137.0 
87.0,-18.0,1158.0 
94.0,-19.0,1197.0 
150.0,-15.0,1242.0 
193.0,-17.0,1271.0 
197.0,-37.0,1283.0 
178.0,-63.0,1224.0 
113.0,-132.0,1186.0 
103.0,-128.0,1199.0 
104.0,-137.0,1206.0 
104.0,-113.0,1246.0 
145.0,-105.0,1293.0 
153.0,-76.0,1364.0 
143.0,-12.0,1422.0 
109.0,54.0,1513.0 
47.0,95.0,1549.0 
15.0,154.0,1614.0 
16.0,199.0,1619.0 
-37.0,182.0,1509.0 
-123.0,180.0,1458.0 
-128.0,198.0,1455.0 
-138.0,211.0,1456.0 
-173.0,227.0,1451.0 
-149.0,232.0,1455.0 
-146.0,241.0,1425.0 
-183.0,250.0,1369.0 
-201.0,277.0,1332.0 
-205.0,284.0,1322.0 
-189.0,282.0,1348.0 
-151.0,295.0,1390.0 
-125.0,270.0,1358.0 
-130.0,257.0,1332.0 
-150.0,252.0,1275.0 
-182.0,226.0,1198.0 
-180.0,272.0,1168.0 
-174.0,294.0,1158.0 
-157.0,337.0,1164.0 
-130.0,339.0,1169.0 
-168.0,374.0,1152.0 
-149.0,354.0,1117.0 
-139.0,370.0,1111.0 
-111.0,344.0,1082.0 
-91.0,335.0,1039.0 
-98.0,318.0,982.0 
-95.0,324.0,943.0 
-109.0,358.0,930.0 
-112.0,345.0,883.0 
-98.0,350.0,930.0 
-61.0,375.0,926.0 
-78.0,354.0,907.0 
-41.0,362.0,922.0 
-24.0,370.0,927.0 
-16.0,368.0,923.0 
-8.0,367.0,873.0 
-35.0,378.0,846.0 
-51.0,387.0,820.0 
-72.0,372.0,765.0 
-40.0,357.0,747.0 
-4.0,345.0,747.0 
3.0,332.0,721.0 
21.0,333.0,743.0 
63.0,333.0,762.0 
81.0,333.0,796.0 
82.0,330.0,795.0 
65.0,330.0,770.0 
45.0,306.0,756.0 
63.0,284.0,721.0 
73.0,260.0,692.0 
101.0,207.0,657.0 
128.0,165.0,663.0 
152.0,141.0,673.0 
168.0,123.0,701.0 
192.0,147.0,823.0 
207.0,168.0,844.0 
208.0,167.0,877.0 
243.0,184.0,907.0 
243.0,144.0,857.0 
219.0,122.0,826.0 
203.0,98.0,806.0 
164.0,37.0,773.0 
189.0,-64.0,725.0 
214.0,-101.0,753.0 
285.0,-120.0,794.0 
336.0,-119.0,855.0 
373.0,-89.0,929.0 
347.0,-70.0,938.0 
321.0,-41.0,955.0 
303.0,-47.0,958.0 
282.0,-90.0,936.0 
302.0,-96.0,942.0 
317.0,-147.0,956.0 
312.0,-180.0,930.0 
335.0,-249.0,952.0 
389.0,-244.0,980.0 
423.0,-228.0,1015.0 
435.0,-196.0,1103.0 
392.0,-131.0,1123.0 
341.0,-121.0,1143.0 
284.0,-113.0,1154.0 
202.0,-125.0,1139.0 
180.0,-129.0,1173.0 
187.0,-132.0,1214.0 
185.0,-145.0,1232.0 
229.0,-116.0,1308.0 
309.0,-99.0,1355.0 
315.0,-90.0,1399.0 
304.0,-100.0,1400.0 
262.0,-138.0,1350.0 
155.0,-159.0,1320.0 
121.0,-161.0,1315.0 
86.0,-155.0,1302.0 
84.0,-81.0,1364.0 
111.0,-45.0,1416.0 
128.0,-23.0,1450.0 
147.0,12.0,1476.0 
147.0,66.0,1479.0 
135.0,18.0,1448.0 
100.0,-7.0,1414.0 
89.0,-21.0,1383.0 
33.0,-5.0,1364.0 
10.0,8.0,1360.0 
5.0,38.0,1365.0 
22.0,82.0,1416.0 
15.0,112.0,1431.0 
14.0,119.0,1438.0 
13.0,122.0,1444.0 
13.0,91.0,1422.0 
-29.0,78.0,1386.0 
-52.0,83.0,1351.0 
-64.0,85.0,1336.0 
-68.0,126.0,1313.0 
-79.0,136.0,1311.0 
-94.0,152.0,1312.0 
-99.0,157.0,1317.0 
-85.0,180.0,1356.0 
-74.0,173.0,1326.0 
-99.0,170.0,1291.0 
-118.0,178.0,1272.0 
-119.0,202.0,1239.0 
-112.0,218.0,1239.0 
-124.0,238.0,1233.0 
-140.0,250.0,1221.0 
-122.0,260.0,1236.0 
-125.0,254.0,1219.0 
-139.0,236.0,1193.0 
-159.0,206.0,1115.0 
-165.0,186.0,1105.0 
-132.0,187.0,1116.0 
-106.0,186.0,1109.0 
-96.0,165.0,1071.0 
-91.0,137.0,1044.0 
-76.0,134.0,1030.0 
-79.0,118.0,1016.0 
-75.0,111.0,989.0 
-25.0,94.0,1000.0 
11.0,82.0,1013.0 
23.0,72.0,1011.0 
24.0,34.0,1000.0 
29.0,74.0,1003.0 
14.0,91.0,994.0 
-2.0,113.0,988.0 
-13.0,149.0,989.0 
-22.0,142.0,983.0 
-13.0,132.0,984.0 
0.0,123.0,1001.0 
25.0,85.0,1013.0 
51.0,75.0,1015.0 
65.0,64.0,1036.0 
80.0,56.0,1050.0 
90.0,53.0,1083.0 
79.0,66.0,1088.0 
69.0,75.0,1100.0 
58.0,85.0,1092.0 
64.0,101.0,1126.0 
66.0,104.0,1142.0 
65.0,92.0,1145.0 
71.0,74.0,1159.0 
80.0,30.0,1154.0 
98.0,19.0,1163.0 
89.0,26.0,1163.0 
25.0,46.0,1143.0 
29.0,43.0,1132.0 
34.0,39.0,1127.0 
34.0,37.0,1121.0 
43.0,36.0,1130.0 
46.0,40.0,1139.0 
40.0,48.0,1137.0 
31.0,57.0,1150.0 
35.0,65.0,1157.0 
32.0,59.0,1160.0 
28.0,50.0,1164.0 
27.0,45.0,1144.0 
17.0,40.0,1133.0 
18.0,35.0,1119.0 
11.0,35.0,1111.0 
26.0,43.0,1128.0 
40.0,48.0,1134.0 
43.0,60.0,1137.0 
41.0,52.0,1146.0 
43.0,51.0,1131.0 
39.0,38.0,1143.0 
31.0,35.0,1125.0 
18.0,33.0,1108.0 
17.0,29.0,1096.0 
24.0,34.0,1104.0 
39.0,34.0,1101.0 
40.0,39.0,1099.0 
54.0,41.0,1076.0 
55.0,42.0,1072.0 
65.0,39.0,1073.0 
78.0,27.0,1059.0 
99.0,1.0,1063.0 
118.0,-20.0,1043.0 
152.0,-42.0,1039.0 
167.0,-68.0,1018.0 
223.0,-131.0,1019.0 
228.0,-167.0,1006.0 
234.0,-210.0,1015.0 
235.0,-257.0,1053.0 
224.0,-272.0,1074.0 
224.0,-262.0,1117.0 
235.0,-219.0,1163.0 
260.0,-187.0,1262.0 
264.0,-127.0,1311.0 
283.0,-68.0,1373.0 
271.0,-57.0,1386.0 
252.0,2.0,1380.0 
213.0,3.0,1411.0 
203.0,-7.0,1411.0 
176.0,-45.0,1405.0 
124.0,-120.0,1400.0 
115.0,-134.0,1398.0 
91.0,-134.0,1390.0 
76.0,-123.0,1411.0 
87.0,-28.0,1455.0 
55.0,-15.0,1458.0 
22.0,53.0,1503.0 
8.0,99.0,1619.0 
-50.0,230.0,1559.0 
-151.0,199.0,1535.0 
-194.0,232.0,1480.0 
-220.0,252.0,1482.0 
-243.0,240.0,1467.0 
-234.0,232.0,1462.0 
-202.0,256.0,1467.0 
-187.0,258.0,1396.0 
-186.0,257.0,1345.0 
-188.0,278.0,1297.0 
-193.0,274.0,1282.0 
-209.0,304.0,1262.0 
-236.0,320.0,1246.0 
-280.0,315.0,1218.0 
-299.0,334.0,1169.0 
-312.0,335.0,1089.0 
-290.0,342.0,1064.0 
-241.0,342.0,1071.0 
-168.0,375.0,1088.0 
-138.0,376.0,1060.0 
-196.0,319.0,1022.0 
-126.0,407.0,1014.0 
-159.0,374.0,1013.0 
-177.0,396.0,1055.0 
-194.0,378.0,1059.0 
-192.0,362.0,1043.0 
-180.0,331.0,993.0 
-147.0,298.0,969.0 
-115.0,291.0,954.0 
-76.0,285.0,953.0 
-41.0,276.0,977.0 
-15.0,277.0,1005.0 
-30.0,282.0,996.0 
-48.0,293.0,979.0 
-48.0,298.0,970.0 
-38.0,292.0,956.0 
-23.0,282.0,940.0 
-6.0,280.0,933.0 
0.0,256.0,899.0 
42.0,259.0,938.0 
74.0,248.0,954.0 
91.0,241.0,971.0 
99.0,223.0,956.0 
120.0,196.0,937.0 
123.0,196.0,939.0 
127.0,213.0,919.0 
122.0,130.0,781.0 
140.0,232.0,842.0 
153.0,155.0,830.0 
150.0,143.0,771.0 
218.0,101.0,817.0 
254.0,73.0,834.0 
278.0,60.0,838.0 
293.0,61.0,859.0 
256.0,75.0,851.0 
241.0,102.0,818.0 
241.0,123.0,828.0 
253.0,147.0,827.0 
251.0,140.0,815.0 
228.0,89.0,797.0 
230.0,63.0,771.0 
243.0,3.0,771.0 
288.0,-70.0,771.0 
320.0,-80.0,755.0 
358.0,-77.0,756.0 
372.0,-61.0,799.0 
386.0,-3.0,827.0 
345.0,30.0,834.0 
282.0,59.0,833.0 
234.0,50.0,793.0 
226.0,45.0,805.0 
244.0,-9.0,825.0 
272.0,-37.0,787.0 
284.0,-127.0,861.0 
443.0,-157.0,908.0 
505.0,-140.0,938.0 
520.0,-121.0,944.0 
499.0,-104.0,904.0 
374.0,-91.0,907.0 
284.0,-65.0,897.0 
203.0,-51.0,914.0 
186.0,-87.0,946.0 
233.0,-117.0,985.0 
337.0,-110.0,1040.0 
427.0,-111.0,1091.0 
478.0,-136.0,1115.0 
477.0,-160.0,1118.0 
444.0,-172.0,1135.0 
387.0,-164.0,1196.0 
231.0,-139.0,1219.0 
157.0,-93.0,1255.0 
148.0,-59.0,1282.0 
192.0,-29.0,1374.0 
264.0,-15.0,1377.0 
293.0,-64.0,1376.0 
294.0,-111.0,1341.0 
273.0,-186.0,1287.0 
212.0,-200.0,1291.0 
188.0,-196.0,1313.0 
159.0,-177.0,1323.0 
127.0,-102.0,1396.0 
136.0,-66.0,1431.0 
126.0,-20.0,1445.0 
119.0,-2.0,1444.0 
86.0,-23.0,1394.0 
81.0,-47.0,1393.0 
86.0,-62.0,1389.0 
70.0,-68.0,1380.0 
51.0,-41.0,1380.0 
57.0,-20.0,1387.0 
72.0,11.0,1414.0 
100.0,66.0,1429.0 
73.0,125.0,1454.0 
40.0,150.0,1443.0 
18.0,142.0,1457.0 
-43.0,145.0,1346.0 
-74.0,125.0,1332.0 
-61.0,122.0,1330.0 
-31.0,114.0,1311.0 
-21.0,108.0,1277.0 
12.0,111.0,1277.0 
31.0,120.0,1292.0 
11.0,130.0,1301.0 
-30.0,149.0,1291.0 
-116.0,194.0,1256.0 
-163.0,198.0,1222.0 
-189.0,212.0,1193.0 
-166.0,203.0,1208.0 
-83.0,186.0,1216.0 
-73.0,198.0,1241.0 
-68.0,190.0,1208.0 
-74.0,155.0,1156.0 
-107.0,157.0,1133.0 
-116.0,154.0,1121.0 
-119.0,164.0,1127.0 
-111.0,204.0,1126.0 
-101.0,217.0,1118.0 
-107.0,214.0,1106.0 
-111.0,230.0,1100.0 
-70.0,210.0,1116.0 
-69.0,201.0,1119.0 
-68.0,185.0,1093.0 
132.0,181.0,1144.0 
126.0,179.0,1137.0 
124.0,182.0,1135.0 
127.0,184.0,1135.0 
125.0,182.0,1125.0 
124.0,185.0,1124.0 
121.0,192.0,1118.0 
122.0,193.0,1114.0 
143.0,194.0,1126.0 
135.0,179.0,1120.0 
147.0,178.0,1125.0 
148.0,185.0,1125.0 
146.0,211.0,1137.0 
135.0,216.0,1135.0 
121.0,233.0,1142.0 
123.0,241.0,1153.0 
120.0,238.0,1147.0 
116.0,240.0,1137.0 
95.0,238.0,1121.0 
93.0,251.0,1088.0 
90.0,257.0,1092.0 
83.0,257.0,1089.0 
82.0,269.0,1083.0 
69.0,314.0,1097.0 
26.0,351.0,1107.0 
-3.0,403.0,1113.0 
-37.0,438.0,1119.0 
-51.0,458.0,1066.0 
-37.0,427.0,1009.0 
-24.0,389.0,942.0 
-11.0,346.0,868.0 
8.0,295.0,761.0 
17.0,269.0,706.0 
8.0,263.0,673.0 
24.0,259.0,683.0 
51.0,287.0,727.0 
78.0,279.0,730.0 
135.0,272.0,811.0 
141.0,247.0,836.0 
107.0,201.0,788.0 
59.0,188.0,782.0 
34.0,172.0,775.0 
44.0,151.0,796.0 
129.0,89.0,807.0 
155.0,70.0,788.0 
177.0,60.0,812.0 
188.0,42.0,881.0 
188.0,23.0,929.0 
154.0,23.0,944.0 
134.0,35.0,958.0 
142.0,35.0,1017.0 
124.0,88.0,1098.0 
162.0,117.0,1132.0 
135.0,72.0,1135.0 
152.0,38.0,1100.0 
147.0,-10.0,1088.0 
144.0,-63.0,1055.0 
139.0,-118.0,1057.0 
136.0,-175.0,1068.0 
160.0,-176.0,1083.0 
192.0,-162.0,1140.0 
182.0,-151.0,1169.0 
166.0,-149.0,1197.0 
107.0,-147.0,1192.0 
67.0,-177.0,1197.0 
19.0,-160.0,1220.0 
27.0,-178.0,1335.0 
105.0,-169.0,1357.0 
140.0,-76.0,1420.0 
124.0,-105.0,1476.0 
80.0,-8.0,1448.0 
22.0,-8.0,1419.0 
10.0,-15.0,1409.0 
-38.0,-67.0,1378.0 
-32.0,-135.0,1411.0 
-19.0,-155.0,1439.0 
-8.0,-150.0,1457.0 
15.0,-112.0,1473.0 
38.0,-41.0,1462.0 
47.0,-36.0,1454.0 
0.0,-32.0,1391.0 
-15.0,-40.0,1272.0 
-85.0,-64.0,1232.0 
-54.0,-69.0,1227.0 
-38.0,-56.0,1264.0 
8.0,-9.0,1377.0 
-1.0,11.0,1387.0 
-17.0,35.0,1376.0 
-12.0,65.0,1391.0 
-68.0,58.0,1346.0 
-93.0,43.0,1333.0 
-82.0,37.0,1324.0 
-102.0,1.0,1302.0 
-108.0,0.0,1305.0 
-87.0,39.0,1312.0 
-85.0,91.0,1354.0 
-90.0,126.0,1325.0 
-91.0,222.0,1368.0 
-91.0,239.0,1373.0 
-99.0,238.0,1349.0 
-125.0,192.0,1301.0 
-130.0,101.0,1277.0 
-141.0,59.0,1225.0 
-151.0,33.0,1190.0 
-138.0,32.0,1182.0 
-85.0,64.0,1186.0 
-73.0,107.0,1218.0 
-93.0,147.0,1243.0 
-107.0,206.0,1311.0 
-163.0,314.0,1359.0 
-218.0,320.0,1381.0 
-250.0,322.0,1367.0 
-257.0,300.0,1369.0 
-227.0,256.0,1346.0 
-232.0,252.0,1300.0 
-231.0,233.0,1265.0 
-202.0,264.0,1284.0 
-202.0,246.0,1259.0 
-173.0,354.0,1312.0 
-236.0,334.0,1313.0 
-278.0,336.0,1240.0 
-311.0,321.0,1236.0 
-310.0,310.0,1202.0 
-302.0,294.0,1159.0 
-210.0,268.0,1162.0 
-172.0,262.0,1169.0 
-148.0,250.0,1169.0 
-146.0,274.0,1154.0 
-172.0,382.0,1232.0 
-226.0,412.0,1205.0 
-268.0,420.0,1189.0 
-292.0,405.0,1083.0 
-241.0,317.0,1074.0 
-165.0,275.0,1078.0 
-120.0,244.0,1059.0 
-80.0,210.0,1040.0 
-59.0,221.0,1051.0 
-58.0,235.0,1045.0 
-70.0,252.0,1041.0 
-100.0,272.0,1055.0 
-155.0,356.0,1058.0 
-168.0,339.0,1018.0 
-151.0,322.0,1006.0 
-111.0,229.0,959.0 
-22.0,158.0,954.0 
37.0,148.0,950.0 
60.0,140.0,973.0 
64.0,163.0,965.0 
42.0,189.0,976.0 
50.0,215.0,981.0 
45.0,242.0,984.0 
12.0,258.0,967.0 
-3.0,228.0,963.0 
16.0,194.0,965.0 
37.0,160.0,946.0 
71.0,94.0,912.0 
94.0,85.0,895.0 
104.0,83.0,870.0 
117.0,90.0,878.0 
192.0,92.0,892.0 
187.0,117.0,909.0 
186.0,135.0,928.0 
156.0,169.0,917.0 
97.0,157.0,917.0 
98.0,132.0,901.0 
120.0,68.0,889.0 
150.0,14.0,882.0 
252.0,-46.0,891.0 
306.0,-43.0,940.0 
344.0,-2.0,954.0 
339.0,54.0,988.0 
298.0,87.0,983.0 
243.0,136.0,1035.0 
224.0,163.0,1008.0 
161.0,85.0,952.0 
181.0,53.0,950.0 
216.0,-7.0,963.0 
269.0,-61.0,951.0 
360.0,-116.0,1100.0 
448.0,-126.0,1123.0 
418.0,-129.0,1135.0 
383.0,-105.0,1147.0 
302.0,-42.0,1172.0 
227.0,-10.0,1169.0 
206.0,19.0,1168.0 
199.0,6.0,1171.0 
221.0,-53.0,1152.0 
256.0,-75.0,1159.0 
292.0,-94.0,1175.0 
312.0,-102.0,1215.0 
303.0,-80.0,1194.0 
270.0,-56.0,1177.0 
243.0,-26.0,1182.0 
207.0,16.0,1206.0 
151.0,91.0,1214.0 
140.0,112.0,1233.0 
140.0,128.0,1229.0 
164.0,109.0,1203.0 
197.0,60.0,1192.0 
201.0,41.0,1168.0 
65.0,95.0,1145.0 
74.0,94.0,1141.0 
76.0,104.0,1148.0 
52.0,113.0,1152.0 
56.0,110.0,1154.0 
54.0,106.0,1161.0 
61.0,103.0,1160.0 
65.0,85.0,1151.0 
77.0,86.0,1149.0 
82.0,90.0,1158.0 
91.0,99.0,1141.0 
35.0,98.0,1132.0 
38.0,119.0,1138.0 
37.0,121.0,1146.0 
48.0,114.0,1141.0 
47.0,108.0,1127.0 
59.0,114.0,1137.0 
64.0,120.0,1146.0 
71.0,175.0,1169.0 
24.0,188.0,1161.0 
15.0,221.0,1158.0 
-5.0,237.0,1169.0 
0.0,255.0,1175.0 
-48.0,278.0,1161.0 
-63.0,300.0,1153.0 
-61.0,304.0,1149.0 
-52.0,283.0,1124.0 
-47.0,272.0,1098.0 
-56.0,260.0,1092.0 
-61.0,292.0,1079.0 
-94.0,325.0,1063.0 
-84.0,324.0,1031.0 
-97.0,296.0,993.0 
-91.0,257.0,912.0 
-70.0,189.0,870.0 
-52.0,167.0,833.0 
-44.0,145.0,807.0 
-52.0,137.0,666.0 
-49.0,142.0,635.0 
-20.0,147.0,657.0 
37.0,168.0,702.0 
62.0,174.0,708.0 
57.0,187.0,732.0 
56.0,184.0,740.0 
53.0,173.0,751.0 
55.0,110.0,799.0 
113.0,82.0,836.0 
128.0,42.0,893.0 
141.0,14.0,911.0 
144.0,-53.0,897.0 
84.0,-95.0,860.0 
93.0,-99.0,874.0 
120.0,-90.0,900.0 
167.0,-85.0,991.0 
190.0,-88.0,1041.0 
129.0,-84.0,1043.0 
118.0,-121.0,1064.0 
63.0,-145.0,1112.0 
52.0,-149.0,1110.0 
52.0,-149.0,1122.0 
85.0,-148.0,1136.0 
159.0,-135.0,1123.0 
183.0,-122.0,1152.0 
184.0,-130.0,1185.0 
174.0,-163.0,1206.0 
67.0,-253.0,1213.0 
20.0,-233.0,1240.0 
-15.0,-231.0,1294.0 
-13.0,-130.0,1386.0 
-2.0,-149.0,1412.0 
31.0,-126.0,1433.0 
60.0,-103.0,1429.0 
55.0,-112.0,1426.0 
14.0,-133.0,1409.0 
-17.0,-167.0,1371.0 
-49.0,-213.0,1314.0 
-92.0,-274.0,1326.0 
-67.0,-277.0,1356.0 
-60.0,-224.0,1404.0 
-44.0,-166.0,1452.0 
-21.0,-47.0,1517.0 
-59.0,9.0,1518.0 
-102.0,32.0,1540.0 
-75.0,25.0,1561.0 
-142.0,-25.0,1444.0 
-121.0,-99.0,1390.0 
-83.0,-111.0,1351.0 
-79.0,-119.0,1324.0 
-66.0,-41.0,1340.0 
-32.0,-2.0,1390.0 
-43.0,43.0,1417.0 
-80.0,85.0,1432.0 
-202.0,104.0,1421.0 
-166.0,127.0,1419.0 
-135.0,91.0,1336.0 
-134.0,42.0,1192.0 
-131.0,-38.0,1125.0 
-88.0,-59.0,1115.0 
-33.0,-66.0,1134.0 
16.0,-40.0,1254.0 
30.0,5.0,1289.0 
-12.0,31.0,1274.0 
-81.0,60.0,1252.0 
-101.0,144.0,1341.0 
-145.0,183.0,1294.0 
-157.0,158.0,1262.0 
-146.0,140.0,1257.0 
-142.0,70.0,1261.0 
-117.0,51.0,1256.0 
-96.0,55.0,1276.0 
-92.0,72.0,1303.0 
-118.0,188.0,1350.0 
-159.0,226.0,1364.0 
-178.0,251.0,1379.0 
-200.0,273.0,1332.0 
-249.0,246.0,1292.0 
-258.0,226.0,1250.0 
-258.0,193.0,1243.0 
-230.0,189.0,1277.0 
-172.0,193.0,1295.0 
-157.0,220.0,1293.0 
-183.0,230.0,1303.0 
-219.0,250.0,1318.0 
-313.0,303.0,1303.0 
-319.0,314.0,1291.0 
-294.0,321.0,1298.0 
-249.0,303.0,1266.0 
-199.0,300.0,1259.0 
-185.0,267.0,1223.0 
-186.0,242.0,1195.0 
-198.0,218.0,1159.0 
-179.0,212.0,1157.0 
-161.0,213.0,1151.0 
-152.0,233.0,1150.0 
-169.0,283.0,1109.0 
-175.0,298.0,1086.0 
-158.0,324.0,1067.0 
-145.0,322.0,1038.0 
-123.0,311.0,984.0 
-106.0,293.0,978.0 
-92.0,278.0,976.0 
-71.0,288.0,976.0 
-49.0,274.0,948.0 
-44.0,277.0,962.0 
-34.0,297.0,991.0 
-93.0,271.0,1000.0 
-67.0,310.0,1013.0 
-57.0,295.0,992.0 
-71.0,280.0,976.0 
-47.0,252.0,928.0 
12.0,202.0,892.0 
45.0,187.0,869.0 
60.0,196.0,854.0 
73.0,201.0,854.0 
76.0,221.0,866.0 
76.0,242.0,873.0 
52.0,258.0,872.0 
30.0,249.0,826.0 
0.0,199.0,858.0 
109.0,197.0,804.0 
100.0,118.0,790.0 
123.0,30.0,783.0 
173.0,-14.0,802.0 
210.0,-14.0,824.0 
226.0,-26.0,843.0 
201.0,19.0,951.0 
298.0,22.0,1016.0 
301.0,4.0,1032.0 
306.0,16.0,1041.0 
301.0,-19.0,1057.0 
277.0,-37.0,1038.0 
268.0,-44.0,1051.0 
285.0,-60.0,1067.0 
284.0,-107.0,1009.0 
284.0,-126.0,987.0 
285.0,-139.0,993.0 
283.0,-146.0,1047.0 
295.0,-125.0,1090.0 
277.0,-95.0,1122.0 
267.0,-81.0,1177.0 
276.0,-30.0,1230.0 
295.0,-39.0,1241.0 
263.0,-32.0,1228.0 
242.0,-30.0,1205.0 
229.0,-56.0,1157.0 
190.0,-59.0,1140.0 
187.0,-65.0,1131.0 
182.0,-69.0,1122.0 
183.0,-56.0,1131.0 
185.0,-37.0,1132.0 
170.0,-30.0,1131.0 
162.0,-21.0,1157.0 
191.0,1.0,1238.0 
214.0,9.0,1248.0 
184.0,39.0,1242.0 
170.0,49.0,1229.0 
110.0,81.0,1200.0 
92.0,90.0,1188.0 
77.0,97.0,1183.0 
71.0,87.0,1184.0 
86.0,56.0,1147.0 
92.0,93.0,1178.0 
80.0,109.0,1176.0 
52.0,113.0,1169.0 
52.0,117.0,1176.0 
56.0,104.0,1172.0 
34.0,71.0,1151.0 
51.0,57.0,1146.0 
63.0,44.0,1135.0 
70.0,43.0,1137.0 
76.0,61.0,1152.0 
74.0,88.0,1168.0 
67.0,104.0,1175.0 
46.0,150.0,1170.0 
31.0,160.0,1162.0 
35.0,153.0,1141.0 
45.0,127.0,1116.0 
45.0,107.0,1104.0 
69.0,103.0,1112.0 
70.0,108.0,1118.0 
76.0,123.0,1103.0 
36.0,157.0,1100.0 
32.0,195.0,1104.0 
8.0,219.0,1113.0 
-2.0,231.0,1094.0 
1.0,234.0,1097.0 
16.0,227.0,1084.0 
5.0,220.0,1062.0 
-16.0,204.0,1049.0 
-24.0,204.0,1021.0 
-34.0,208.0,1003.0 
-50.0,226.0,974.0 
-60.0,237.0,916.0 
-52.0,249.0,895.0 
-34.0,256.0,881.0 
-6.0,254.0,853.0 
31.0,212.0,822.0 
52.0,188.0,805.0 
65.0,159.0,790.0 
58.0,143.0,786.0 
34.0,95.0,773.0 
25.0,91.0,775.0 
12.0,89.0,769.0 
37.0,55.0,789.0 
121.0,3.0,808.0 
151.0,-30.0,821.0 
166.0,-66.0,849.0 
181.0,-93.0,908.0 
147.0,-92.0,918.0 
117.0,-95.0,930.0 
90.0,-91.0,941.0 
78.0,-75.0,965.0 
86.0,-86.0,997.0 
61.0,-121.0,1015.0 
94.0,-147.0,1051.0 
103.0,-202.0,1020.0 
86.0,-219.0,1026.0 
116.0,-207.0,1063.0 
132.0,-198.0,1081.0 
136.0,-133.0,1073.0 
152.0,-111.0,1073.0 
145.0,-108.0,1064.0 
136.0,-101.0,1092.0 
51.0,-93.0,1111.0 
20.0,-80.0,1139.0 
-31.0,-131.0,1187.0 
-61.0,-153.0,1249.0 
-52.0,-221.0,1287.0 
-27.0,-248.0,1303.0 
3.0,-270.0,1309.0 
70.0,-284.0,1357.0 
98.0,-265.0,1359.0 
62.0,-226.0,1390.0 
7.0,-193.0,1409.0 
-57.0,-188.0,1407.0 
-164.0,-212.0,1418.0 
-172.0,-248.0,1431.0 
-148.0,-266.0,1453.0 
-118.0,-242.0,1499.0 
-60.0,-230.0,1511.0 
-39.0,-203.0,1526.0 
-55.0,-172.0,1515.0 
-70.0,-166.0,1446.0 
-124.0,-88.0,1499.0 
-172.0,-132.0,1482.0 
-182.0,-124.0,1444.0 
-174.0,-138.0,1423.0 
-106.0,-171.0,1403.0 
-118.0,-143.0,1373.0 
-98.0,-148.0,1364.0 
-34.0,-4.0,1451.0 
-66.0,-33.0,1490.0 
-77.0,-20.0,1457.0 
-112.0,-17.0,1378.0 
-166.0,-28.0,1220.0 
-198.0,-93.0,1212.0 
-209.0,-97.0,1173.0 
-204.0,-94.0,1159.0 
-80.0,-112.0,1226.0 
-35.0,-106.0,1269.0 
-52.0,-91.0,1265.0 
-71.0,-60.0,1290.0 
-86.0,48.0,1299.0 
-120.0,96.0,1289.0 
-133.0,138.0,1294.0 
-151.0,137.0,1260.0 
-164.0,112.0,1249.0 
-159.0,76.0,1243.0 
-148.0,72.0,1264.0 
-126.0,96.0,1372.0 
-125.0,122.0,1427.0 
-183.0,146.0,1419.0 
-223.0,180.0,1418.0 
-269.0,173.0,1373.0 
-294.0,143.0,1361.0 
-276.0,120.0,1326.0 
-270.0,94.0,1282.0 
-220.0,66.0,1228.0 
-192.0,78.0,1212.0 
-170.0,109.0,1226.0 
-159.0,151.0,1233.0 
-202.0,229.0,1234.0 
-237.0,270.0,1240.0 
-252.0,287.0,1230.0 
-245.0,288.0,1205.0 
-237.0,243.0,1172.0 
-212.0,222.0,1146.0 
-200.0,198.0,1129.0 
-177.0,193.0,1119.0 
-165.0,203.0,1114.0 
-155.0,216.0,1127.0 
-147.0,234.0,1115.0 
-142.0,263.0,1099.0 
-176.0,257.0,1097.0 
-142.0,262.0,1066.0 
-151.0,258.0,1039.0 
-137.0,247.0,1039.0 
-117.0,243.0,1019.0 
-97.0,248.0,998.0 
-78.0,246.0,976.0 
-68.0,246.0,939.0 
-44.0,266.0,942.0 
-47.0,283.0,942.0 
-60.0,306.0,949.0 
-68.0,285.0,940.0 
-65.0,264.0,926.0 
-55.0,240.0,912.0 
-39.0,208.0,885.0 
7.0,168.0,870.0 
64.0,171.0,912.0 
104.0,171.0,945.0 
100.0,186.0,930.0 
41.0,219.0,928.0 
7.0,238.0,943.0 
-8.0,229.0,926.0 
-6.0,210.0,901.0 
20.0,133.0,869.0 
52.0,87.0,855.0 
122.0,56.0,864.0 
168.0,21.0,882.0 
210.0,-12.0,885.0 
217.0,0.0,904.0 
210.0,-3.0,926.0 
215.0,12.0,1007.0 
233.0,-3.0,1043.0 
253.0,-41.0,1052.0 
270.0,-84.0,1030.0 
279.0,-147.0,1002.0 
340.0,-159.0,1020.0 
333.0,-141.0,1021.0 
323.0,-115.0,1039.0 
283.0,-98.0,1088.0 
287.0,-66.0,1138.0 
289.0,-89.0,1148.0 
302.0,-85.0,1160.0 
322.0,-16.0,1228.0 
286.0,-51.0,1227.0 
277.0,-57.0,1158.0 
262.0,-65.0,1151.0 
269.0,-91.0,1139.0 
250.0,-101.0,1109.0 
241.0,-98.0,1110.0 
238.0,-90.0,1130.0 
242.0,-64.0,1159.0 
219.0,-49.0,1178.0 
201.0,-28.0,1191.0 
190.0,-7.0,1223.0 
186.0,34.0,1229.0 
163.0,71.0,1208.0 
136.0,83.0,1185.0 
116.0,69.0,1129.0 
114.0,14.0,1120.0 
133.0,-7.0,1117.0 
143.0,-19.0,1111.0 
148.0,-3.0,1100.0 
147.0,31.0,1108.0 
149.0,52.0,1115.0 
156.0,82.0,1140.0 
151.0,115.0,1173.0 
95.0,131.0,1159.0 
75.0,155.0,1103.0 
77.0,139.0,1084.0 
95.0,142.0,1065.0 
106.0,131.0,1006.0 
128.0,115.0,976.0 
160.0,115.0,975.0 
169.0,122.0,967.0 
184.0,110.0,968.0 
180.0,103.0,974.0 
191.0,113.0,976.0 
196.0,111.0,955.0 
195.0,103.0,940.0 
221.0,96.0,941.0 
235.0,95.0,937.0 
259.0,84.0,940.0 
277.0,79.0,910.0 
268.0,91.0,921.0 
260.0,92.0,917.0 
254.0,91.0,931.0 
268.0,99.0,968.0 
267.0,75.0,949.0 
271.0,62.0,934.0 
281.0,75.0,949.0 
291.0,114.0,944.0 
294.0,126.0,957.0 
293.0,120.0,948.0 
237.0,134.0,961.0 
255.0,143.0,929.0 
220.0,127.0,886.0 
219.0,129.0,907.0 
220.0,124.0,907.0 
249.0,91.0,909.0 
259.0,69.0,896.0 
262.0,58.0,885.0 
271.0,59.0,852.0 
248.0,56.0,836.0 
219.0,55.0,784.0 
196.0,44.0,744.0 
175.0,50.0,708.0 
159.0,67.0,709.0 
159.0,71.0,722.0 
183.0,58.0,770.0 
225.0,-10.0,803.0 
275.0,-6.0,821.0 
339.0,-39.0,798.0 
351.0,-54.0,747.0 
321.0,-48.0,655.0 
302.0,-17.0,664.0 
292.0,21.0,693.0 
276.0,53.0,734.0 
237.0,33.0,760.0 
223.0,-16.0,809.0 
210.0,-70.0,817.0 
190.0,-147.0,796.0 
267.0,-265.0,840.0 
319.0,-235.0,927.0 
321.0,-253.0,1037.0 
339.0,-244.0,1144.0 
282.0,-214.0,1268.0 
234.0,-219.0,1255.0 
176.0,-221.0,1259.0 
140.0,-191.0,1335.0 
104.0,-174.0,1371.0 
102.0,-191.0,1389.0 
114.0,-232.0,1400.0 
138.0,-249.0,1459.0 
188.0,-260.0,1485.0 
210.0,-272.0,1512.0 
213.0,-280.0,1514.0 
168.0,-299.0,1479.0 
50.0,-278.0,1536.0 
4.0,-230.0,1595.0 
-48.0,-185.0,1638.0 
-69.0,-137.0,1660.0 
-22.0,-125.0,1666.0 
25.0,-138.0,1652.0 
50.0,-151.0,1613.0 
58.0,-182.0,1543.0 
47.0,-187.0,1520.0 
24.0,-220.0,1494.0 
19.0,-199.0,1496.0 
-65.0,-204.0,1402.0 
-94.0,-172.0,1424.0 
-92.0,-117.0,1475.0 
-75.0,-73.0,1533.0 
-37.0,17.0,1638.0 
-60.0,26.0,1603.0 
-79.0,32.0,1583.0 
-75.0,29.0,1522.0 
-122.0,2.0,1481.0 
-144.0,-4.0,1444.0 
-155.0,25.0,1421.0 
-164.0,49.0,1438.0 
-112.0,114.0,1387.0 
-150.0,140.0,1367.0 
-160.0,166.0,1375.0 
-161.0,180.0,1359.0 
-192.0,178.0,1379.0 
-209.0,163.0,1382.0 
-236.0,158.0,1359.0 
-260.0,153.0,1314.0 
-241.0,163.0,1322.0 
-223.0,188.0,1326.0 
-243.0,203.0,1319.0 
-241.0,249.0,1340.0 
-212.0,266.0,1314.0 
-233.0,254.0,1248.0 
-249.0,235.0,1201.0 
-229.0,224.0,1144.0 
-204.0,230.0,1120.0 
-191.0,239.0,1125.0 
-161.0,252.0,1150.0 
-138.0,276.0,1176.0 
-137.0,303.0,1200.0 
-138.0,333.0,1201.0 
-161.0,325.0,1190.0 
-168.0,303.0,1127.0 
-182.0,261.0,1067.0 
-152.0,292.0,1026.0 
-156.0,251.0,1023.0 
-61.0,276.0,1047.0 
-29.0,288.0,1069.0 
-14.0,299.0,1083.0 
-17.0,300.0,1078.0 
-57.0,324.0,1089.0 
-94.0,331.0,1078.0 
-103.0,295.0,1070.0 
-99.0,205.0,1008.0 
-69.0,166.0,984.0 
-22.0,160.0,990.0 
12.0,161.0,991.0 
38.0,207.0,998.0 
73.0,234.0,996.0 
66.0,248.0,984.0 
58.0,268.0,965.0 
59.0,292.0,958.0 
35.0,280.0,944.0 
34.0,267.0,944.0 
54.0,251.0,952.0 
67.0,216.0,915.0 
61.0,168.0,881.0 
143.0,202.0,904.0 
123.0,192.0,883.0 
126.0,176.0,848.0 
137.0,192.0,867.0 
132.0,204.0,873.0 
140.0,222.0,878.0 
157.0,232.0,868.0 
169.0,236.0,863.0 
182.0,213.0,858.0 
199.0,173.0,879.0 
241.0,178.0,885.0 
257.0,182.0,893.0 
245.0,177.0,909.0 
248.0,176.0,948.0 
249.0,182.0,965.0 
227.0,171.0,955.0 
215.0,154.0,948.0 
206.0,94.0,912.0 
219.0,59.0,894.0 
222.0,31.0,858.0 
225.0,-4.0,836.0 
250.0,-10.0,868.0 
306.0,-9.0,901.0 
312.0,0.0,966.0 
308.0,6.0,996.0 
300.0,20.0,1081.0 
299.0,33.0,1105.0 
302.0,65.0,1120.0 
279.0,55.0,1110.0 
272.0,41.0,1079.0 
280.0,4.0,1055.0 
276.0,-16.0,1034.0 
289.0,-23.0,1052.0 
316.0,-20.0,1070.0 
317.0,-23.0,1073.0 
282.0,-16.0,1069.0 
273.0,-1.0,1118.0 
225.0,15.0,1116.0 
217.0,14.0,1142.0 
206.0,14.0,1149.0 
198.0,4.0,1116.0 
203.0,-13.0,1093.0 
225.0,-40.0,1114.0 
283.0,-47.0,1158.0 
330.0,-71.0,1217.0 
340.0,-83.0,1210.0 
306.0,-90.0,1198.0 
265.0,-87.0,1183.0 
223.0,-52.0,1158.0 
178.0,-44.0,1173.0 
176.0,-24.0,1184.0 
180.0,-19.0,1196.0 
180.0,-57.0,1230.0 
221.0,-56.0,1255.0 
220.0,-54.0,1268.0 
213.0,-37.0,1269.0 
204.0,-4.0,1264.0 
180.0,20.0,1256.0 
178.0,34.0,1230.0 
1.0,8.0,1137.0 
0.0,14.0,1146.0 
-12.0,21.0,1146.0 
-17.0,22.0,1134.0 
-16.0,18.0,1133.0 
-11.0,14.0,1144.0 
-3.0,9.0,1140.0 
2.0,-6.0,1157.0 
18.0,-19.0,1154.0 
9.0,-24.0,1141.0 
9.0,-38.0,1142.0 
19.0,-63.0,1135.0 
22.0,-53.0,1127.0 
22.0,-56.0,1117.0 
25.0,-50.0,1119.0 
27.0,-52.0,1132.0 
37.0,-59.0,1127.0 
42.0,-48.0,1127.0 
49.0,-49.0,1129.0 
76.0,-65.0,1127.0 
98.0,-72.0,1167.0 
127.0,-78.0,1200.0 
147.0,-89.0,1220.0 
163.0,-117.0,1231.0 
159.0,-141.0,1215.0 
139.0,-173.0,1210.0 
121.0,-209.0,1195.0 
178.0,-244.0,1252.0 
212.0,-230.0,1314.0 
232.0,-203.0,1373.0 
245.0,-178.0,1450.0 
195.0,-83.0,1447.0 
150.0,-57.0,1591.0 
166.0,25.0,1572.0 
104.0,34.0,1546.0 
67.0,14.0,1564.0 
26.0,25.0,1527.0 
72.0,45.0,1578.0 
53.0,52.0,1580.0 
37.0,92.0,1601.0 
24.0,96.0,1593.0 
-52.0,78.0,1554.0 
-59.0,92.0,1518.0 
-97.0,88.0,1467.0 
-95.0,97.0,1432.0 
-88.0,109.0,1398.0 
-86.0,131.0,1371.0 
-96.0,156.0,1373.0 
-117.0,212.0,1375.0 
-139.0,259.0,1365.0 
-163.0,336.0,1332.0 
-172.0,306.0,1264.0 
-159.0,299.0,1198.0 
-161.0,305.0,1046.0 
-165.0,324.0,1013.0 
-146.0,332.0,1005.0 
-120.0,332.0,1016.0 
-111.0,359.0,1040.0 
-108.0,370.0,1046.0 
-135.0,409.0,1056.0 
-172.0,408.0,1021.0 
-218.0,421.0,907.0 
-181.0,410.0,898.0 
-134.0,397.0,875.0 
-113.0,387.0,840.0 
-106.0,384.0,752.0 
-75.0,406.0,738.0 
-54.0,390.0,760.0 
-30.0,440.0,811.0 
-13.0,406.0,802.0 
-77.0,411.0,801.0 
-97.0,401.0,788.0 
-92.0,402.0,769.0 
-83.0,345.0,667.0 
-82.0,311.0,611.0 
-47.0,271.0,588.0 
-28.0,239.0,492.0 
59.0,188.0,512.0 
75.0,203.0,552.0 
98.0,203.0,591.0 
124.0,228.0,699.0 
135.0,251.0,735.0 
115.0,225.0,734.0 
104.0,208.0,750.0 
127.0,168.0,741.0 
135.0,39.0,699.0 
137.0,-28.0,670.0 
140.0,-99.0,641.0 
141.0,-154.0,645.0 
234.0,-237.0,662.0 
289.0,-266.0,709.0 
336.0,-283.0,747.0 
367.0,-253.0,788.0 
323.0,-199.0,792.0 
297.0,-175.0,834.0 
263.0,-161.0,866.0 
241.0,-182.0,795.0 
186.0,-276.0,813.0 
258.0,-342.0,876.0 
343.0,-387.0,946.0 
436.0,-423.0,1065.0 
519.0,-387.0,1108.0 
500.0,-342.0,1131.0 
455.0,-303.0,1166.0 
300.0,-193.0,1215.0 
252.0,-132.0,1250.0 
210.0,-111.0,1270.0 
204.0,-123.0,1270.0 
302.0,-230.0,1307.0 
307.0,-320.0,1275.0 
332.0,-372.0,1227.0 
355.0,-370.0,1274.0 
327.0,-279.0,1336.0 
276.0,-211.0,1387.0 
256.0,-164.0,1447.0 
211.0,-70.0,1562.0 
187.0,21.0,1563.0 
174.0,17.0,1516.0 
156.0,9.0,1525.0 
165.0,-76.0,1416.0 
175.0,-135.0,1408.0 
156.0,-169.0,1409.0 
142.0,-139.0,1432.0 
121.0,-41.0,1472.0 
70.0,3.0,1492.0 
70.0,47.0,1536.0 
88.0,100.0,1576.0 
69.0,123.0,1564.0 
20.0,72.0,1526.0 
10.0,36.0,1493.0 
-3.0,-14.0,1442.0 
-48.0,-63.0,1286.0 
-71.0,-39.0,1252.0 
-79.0,-4.0,1228.0 
-72.0,27.0,1221.0 
-35.0,85.0,1288.0 
-2.0,112.0,1327.0 
7.0,138.0,1331.0 
-7.0,137.0,1287.0 
-57.0,190.0,1244.0 
-82.0,183.0,1207.0 
-116.0,198.0,1178.0 
-101.0,176.0,1188.0 
-86.0,177.0,1186.0 
-68.0,161.0,1218.0 
-28.0,153.0,1269.0 
-7.0,151.0,1294.0 
-41.0,153.0,1275.0 
-58.0,156.0,1246.0 
-58.0,160.0,1267.0 
-31.0,184.0,1310.0 
-102.0,139.0,1190.0 
-131.0,81.0,1126.0 
-109.0,95.0,1101.0 
-75.0,23.0,1060.0 
-12.0,22.0,1049.0 
39.0,16.0,1101.0 
85.0,17.0,1153.0 
85.0,59.0,1152.0 
18.0,103.0,1137.0 
-9.0,111.0,1109.0 
-11.0,94.0,1113.0 
-51.0,41.0,1005.0 
-51.0,38.0,955.0 
-36.0,14.0,946.0 
-7.0,5.0,975.0 
72.0,-9.0,977.0 
95.0,-3.0,983.0 
118.0,12.0,1029.0 
135.0,43.0,1052.0 
106.0,63.0,1046.0 
93.0,100.0,1029.0 
71.0,106.0,1048.0 
33.0,101.0,1005.0 
-2.0,96.0,1003.0 
6.0,72.0,1007.0 
34.0,57.0,1036.0 
70.0,19.0,1071.0 
118.0,13.0,1099.0 
138.0,12.0,1115.0 
144.0,5.0,1159.0 
156.0,24.0,1209.0 
107.0,37.0,1210.0 
87.0,35.0,1223.0 
84.0,74.0,1204.0 
59.0,36.0,1197.0 
60.0,21.0,1179.0 
50.0,-10.0,1155.0 
77.0,-20.0,1119.0 
99.0,-32.0,1154.0 
124.0,-27.0,1176.0 
110.0,-27.0,1159.0 
91.0,-14.0,1166.0 
95.0,28.0,1214.0 
82.0,40.0,1217.0 
66.0,48.0,1207.0 
75.0,53.0,1202.0 
61.0,16.0,1184.0 
65.0,6.0,1164.0 
76.0,-7.0,1166.0 
82.0,61.0,1147.0 
67.0,56.0,1133.0 
73.0,66.0,1141.0 
68.0,63.0,1134.0 
65.0,60.0,1137.0 
73.0,74.0,1145.0 
72.0,82.0,1152.0 
66.0,84.0,1156.0 
59.0,84.0,1161.0 
58.0,80.0,1155.0 
53.0,73.0,1142.0 
65.0,64.0,1142.0 
67.0,57.0,1126.0 
74.0,65.0,1120.0 
71.0,75.0,1131.0 
60.0,80.0,1137.0 
66.0,106.0,1145.0 
45.0,103.0,1136.0 
46.0,116.0,1146.0 
46.0,114.0,1153.0 
61.0,115.0,1159.0 
42.0,101.0,1153.0 
59.0,118.0,1158.0 
53.0,118.0,1164.0 
36.0,170.0,1137.0 
-10.0,212.0,1137.0 
-38.0,252.0,1160.0 
-14.0,248.0,1102.0 
-55.0,265.0,1112.0 
-49.0,275.0,1106.0 
-34.0,245.0,1074.0 
-35.0,242.0,1057.0 
-58.0,251.0,1032.0 
-68.0,228.0,991.0 
-82.0,221.0,951.0 
-88.0,198.0,859.0 
-79.0,191.0,811.0 
-66.0,186.0,773.0 
-65.0,174.0,714.0 
-67.0,124.0,619.0 
-27.0,116.0,620.0 
42.0,119.0,635.0 
102.0,140.0,711.0 
141.0,147.0,666.0 
107.0,148.0,642.0 
96.0,159.0,649.0 
79.0,175.0,682.0 
39.0,136.0,810.0 
39.0,95.0,879.0 
22.0,38.0,919.0 
2.0,-51.0,910.0 
81.0,-115.0,928.0 
122.0,-93.0,960.0 
130.0,-120.0,1009.0 
139.0,-111.0,1097.0 
94.0,-93.0,1124.0 
33.0,-107.0,1141.0 
-9.0,-115.0,1116.0 
-39.0,-166.0,1138.0 
13.0,-215.0,1178.0 
65.0,-255.0,1187.0 
94.0,-278.0,1186.0 
124.0,-256.0,1242.0 
117.0,-172.0,1269.0 
61.0,-136.0,1316.0 
-62.0,-100.0,1310.0 
-110.0,-89.0,1380.0 
-104.0,-122.0,1403.0 
-93.0,-177.0,1386.0 
-69.0,-231.0,1369.0 
-22.0,-232.0,1407.0 
53.0,-208.0,1472.0 
52.0,-146.0,1508.0 
8.0,-93.0,1542.0 
-122.0,-5.0,1584.0 
-152.0,-36.0,1572.0 
-230.0,-43.0,1507.0 
-234.0,-82.0,1464.0 
-180.0,-195.0,1426.0 
-137.0,-216.0,1436.0 
-89.0,-209.0,1450.0 
-40.0,-173.0,1491.0 
-50.0,-38.0,1467.0 
-57.0,34.0,1504.0 
-95.0,56.0,1439.0 
-96.0,60.0,1337.0 
-149.0,62.0,1272.0 
-173.0,4.0,1229.0 
-139.0,-45.0,1249.0 
-110.0,-87.0,1273.0 
-58.0,-103.0,1272.0 
-62.0,-83.0,1263.0 
-64.0,-48.0,1302.0 
-55.0,53.0,1348.0 
-100.0,131.0,1373.0 
-131.0,157.0,1359.0 
-173.0,183.0,1350.0 
-179.0,122.0,1249.0 
-182.0,94.0,1203.0 
-149.0,43.0,1180.0 
-78.0,14.0,1217.0 
-46.0,4.0,1276.0 
-2.0,1.0,1291.0 
-15.0,28.0,1322.0 
-45.0,66.0,1372.0 
-164.0,145.0,1368.0 
-231.0,194.0,1353.0 
-278.0,205.0,1347.0 
-301.0,215.0,1339.0 
-318.0,144.0,1284.0 
-235.0,120.0,1326.0 
-173.0,130.0,1370.0 
-151.0,138.0,1406.0 
-168.0,166.0,1415.0 
-188.0,199.0,1395.0 
-225.0,234.0,1388.0 
-283.0,270.0,1324.0 
-360.0,338.0,1305.0 
-371.0,344.0,1273.0 
-356.0,346.0,1225.0 
-320.0,282.0,1196.0 
-208.0,276.0,1208.0 
-181.0,265.0,1215.0 
-174.0,282.0,1194.0 
-182.0,343.0,1176.0 
-207.0,351.0,1148.0 
-237.0,389.0,1127.0 
-265.0,417.0,1122.0 
-281.0,426.0,1062.0 
-269.0,383.0,1044.0 
-240.0,336.0,1015.0 
-176.0,310.0,1010.0 
-92.0,289.0,1041.0 
-61.0,300.0,1003.0 
-85.0,304.0,943.0 
-98.0,331.0,913.0 
-99.0,367.0,885.0 
-124.0,351.0,833.0 
-144.0,353.0,819.0 
-161.0,353.0,808.0 
-113.0,318.0,773.0 
-93.0,295.0,752.0 
-55.0,263.0,747.0 
13.0,263.0,755.0 
61.0,261.0,754.0 
51.0,266.0,723.0 
6.0,258.0,694.0 
59.0,340.0,735.0 
-26.0,307.0,697.0 
-22.0,270.0,694.0 
35.0,247.0,717.0 
78.0,150.0,711.0 
214.0,115.0,767.0 
311.0,90.0,847.0 
364.0,76.0,923.0 
381.0,50.0,1012.0 
341.0,43.0,1035.0 
305.0,10.0,1061.0 
268.0,-39.0,1054.0 
220.0,-195.0,934.0 
256.0,-212.0,1010.0 
292.0,-272.0,992.0 
323.0,-323.0,993.0 
429.0,-330.0,1104.0 
474.0,-316.0,1145.0 
473.0,-265.0,1193.0 
459.0,-189.0,1245.0 
349.0,-21.0,1274.0 
303.0,38.0,1281.0 
266.0,79.0,1267.0 
219.0,71.0,1194.0 
184.0,11.0,1157.0 
221.0,-23.0,1178.0 
255.0,-52.0,1209.0 
275.0,-64.0,1208.0 
249.0,-37.0,1213.0 
225.0,-16.0,1204.0 
196.0,8.0,1191.0 
177.0,33.0,1176.0 
109.0,77.0,1160.0 
97.0,72.0,1144.0 
102.0,52.0,1137.0 
126.0,1.0,1122.0 
162.0,4.0,1125.0 
160.0,6.0,1127.0 
161.0,25.0,1131.0 
160.0,89.0,1143.0 
143.0,109.0,1160.0 
131.0,121.0,1159.0 
126.0,133.0,1156.0 
111.0,146.0,1143.0 
96.0,125.0,1132.0 
109.0,94.0,1117.0 
111.0,86.0,1106.0 
130.0,59.0,1089.0 
132.0,52.0,1083.0 
147.0,58.0,1094.0 
143.0,73.0,1101.0 
135.0,99.0,1114.0 
148.0,106.0,1136.0 
47.0,138.0,1149.0 
54.0,131.0,1096.0 
52.0,108.0,1093.0 
55.0,100.0,1103.0 
62.0,97.0,1106.0 
60.0,100.0,1128.0 
35.0,123.0,1123.0 
28.0,142.0,1118.0 
36.0,164.0,1129.0 
44.0,160.0,1131.0 
46.0,167.0,1115.0 
48.0,165.0,1115.0 
50.0,160.0,1114.0 
37.0,143.0,1107.0 
41.0,122.0,1100.0 
34.0,115.0,1077.0 
39.0,117.0,1082.0 
41.0,142.0,1096.0 
45.0,160.0,1101.0 
21.0,176.0,1093.0 
9.0,214.0,1098.0 
-13.0,250.0,1117.0 
-25.0,278.0,1117.0 
-19.0,274.0,1130.0 
-4.0,270.0,1120.0 
5.0,240.0,1101.0 
-4.0,243.0,1069.0 
-20.0,263.0,1042.0 
-68.0,327.0,981.0 
-72.0,327.0,952.0 
-93.0,336.0,940.0 
-78.0,307.0,928.0 
-54.0,251.0,858.0 
-38.0,159.0,819.0 
-36.0,129.0,782.0 
-32.0,103.0,768.0 
-18.0,80.0,750.0 
41.0,101.0,742.0 
47.0,80.0,719.0 
60.0,94.0,724.0 
58.0,143.0,785.0 
24.0,139.0,805.0 
30.0,117.0,861.0 
10.0,73.0,886.0 
-8.0,-17.0,903.0 
49.0,-49.0,945.0 
135.0,-55.0,1000.0 
201.0,-69.0,1041.0 
177.0,-98.0,1030.0 
112.0,-78.0,1036.0 
60.0,-71.0,1039.0 
4.0,-97.0,1039.0 
1.0,-145.0,1133.0 
14.0,-190.0,1168.0 
67.0,-194.0,1228.0 
103.0,-199.0,1297.0 
174.0,-160.0,1314.0 
134.0,-129.0,1265.0 
75.0,-92.0,1228.0 
30.0,-89.0,1189.0 
-80.0,-176.0,1144.0 
-38.0,-256.0,1141.0 
41.0,-279.0,1194.0 
108.0,-309.0,1317.0 
98.0,-238.0,1355.0 
29.0,-164.0,1371.0 
49.0,-114.0,1421.0 
26.0,-36.0,1485.0 
-37.0,-34.0,1493.0 
-61.0,-61.0,1494.0 
-95.0,-104.0,1433.0 
-107.0,-173.0,1356.0 
-29.0,-197.0,1336.0 
20.0,-200.0,1344.0 
30.0,-187.0,1359.0 
17.0,-102.0,1369.0 
-61.0,-62.0,1379.0 
-74.0,-14.0,1410.0 
-45.0,-23.0,1454.0 
-127.0,-10.0,1349.0 
-125.0,-25.0,1326.0 
-81.0,-51.0,1314.0 
-29.0,-88.0,1288.0 
-30.0,-67.0,1254.0 
-21.0,-62.0,1271.0 
-7.0,-18.0,1302.0 
-16.0,15.0,1374.0 
-83.0,99.0,1366.0 
-118.0,118.0,1361.0 
-157.0,108.0,1346.0 
-183.0,79.0,1278.0 
-174.0,17.0,1249.0 
-132.0,7.0,1275.0 
-80.0,18.0,1298.0 
-73.0,67.0,1307.0 
-100.0,90.0,1327.0 
-119.0,150.0,1348.0 
-153.0,210.0,1387.0 
-204.0,274.0,1426.0 
-275.0,270.0,1405.0 
-272.0,222.0,1357.0 
-243.0,180.0,1317.0 
-229.0,116.0,1215.0 
-198.0,129.0,1186.0 
-169.0,147.0,1204.0 
-152.0,185.0,1230.0 
-192.0,274.0,1239.0 
-223.0,316.0,1260.0 
-236.0,364.0,1287.0 
-250.0,381.0,1312.0 
-267.0,368.0,1289.0 
-243.0,335.0,1256.0 
-246.0,290.0,1226.0 
-243.0,234.0,1142.0 
-210.0,213.0,1153.0 
-191.0,213.0,1164.0 
-168.0,221.0,1185.0 
-164.0,231.0,1192.0 
-175.0,250.0,1174.0 
-157.0,317.0,1253.0 
-160.0,300.0,1246.0 
-191.0,294.0,1167.0 
-180.0,274.0,1147.0 
-199.0,246.0,1096.0 
-170.0,247.0,1084.0 
-112.0,271.0,1086.0 
-78.0,286.0,1076.0 
-93.0,299.0,1075.0 
-101.0,320.0,1115.0 
-117.0,307.0,1124.0 
-147.0,304.0,1120.0 
-135.0,283.0,1095.0 
-103.0,245.0,1079.0 
-78.0,189.0,1011.0 
-32.0,172.0,995.0 
-46.0,179.0,955.0 
-41.0,186.0,923.0 
-27.0,213.0,931.0 
-18.0,230.0,935.0 
-16.0,252.0,941.0 
-17.0,249.0,921.0 
-11.0,222.0,922.0 
-13.0,212.0,896.0 
-7.0,203.0,863.0 
4.0,193.0,780.0 
31.0,180.0,731.0 
43.0,169.0,699.0 
59.0,169.0,689.0 
86.0,172.0,766.0 
145.0,208.0,825.0 
152.0,222.0,882.0 
153.0,240.0,927.0 
171.0,206.0,989.0 
172.0,154.0,988.0 
163.0,125.0,968.0 
165.0,79.0,940.0 
164.0,42.0,907.0 
141.0,22.0,912.0 
158.0,11.0,933.0 
158.0,18.0,933.0 
180.0,-47.0,1012.0 
278.0,-44.0,1067.0 
286.0,-67.0,1073.0 
277.0,-96.0,1075.0 
282.0,-81.0,1118.0 
270.0,-84.0,1129.0 
284.0,-69.0,1130.0 
281.0,-79.0,1122.0 
257.0,-91.0,1080.0 
250.0,-83.0,1059.0 
263.0,-90.0,1099.0 
289.0,-76.0,1149.0 
264.0,-59.0,1159.0 
255.0,-44.0,1166.0 
249.0,-27.0,1191.0 
243.0,-8.0,1174.0 
200.0,-16.0,1159.0 
207.0,-24.0,1138.0 
211.0,-33.0,1118.0 
228.0,-61.0,1109.0 
288.0,-65.0,1184.0 
297.0,-68.0,1197.0 
263.0,-67.0,1179.0 
229.0,-45.0,1167.0 
200.0,-12.0,1184.0 
180.0,-1.0,1192.0 
166.0,9.0,1202.0 
163.0,-28.0,1195.0 
186.0,-49.0,1167.0 
196.0,-68.0,1157.0 
219.0,-75.0,1164.0 
221.0,-58.0,1176.0 
188.0,-36.0,1187.0 
170.0,0.0,1190.0 
151.0,13.0,1185.0 
131.0,90.0,1195.0 
132.0,128.0,1193.0 
121.0,125.0,1187.0 
128.0,119.0,1122.0 
151.0,51.0,1139.0 
118.0,138.0,1132.0 
125.0,157.0,1155.0 
122.0,168.0,1170.0 
106.0,181.0,1175.0 
78.0,190.0,1161.0 
89.0,191.0,1181.0 
73.0,172.0,1160.0 
62.0,154.0,1131.0 
107.0,141.0,1134.0 
105.0,150.0,1120.0 
99.0,166.0,1114.0 
109.0,180.0,1122.0 
99.0,200.0,1115.0 
98.0,196.0,1098.0 
90.0,210.0,1107.0 
97.0,220.0,1121.0 
108.0,209.0,1122.0 
127.0,220.0,1141.0 
102.0,227.0,1117.0 
75.0,236.0,1071.0 
43.0,238.0,1051.0 
60.0,262.0,1077.0 
56.0,279.0,1076.0 
62.0,303.0,1076.0 
64.0,315.0,1086.0 
69.0,316.0,1082.0 
76.0,336.0,1072.0 
54.0,343.0,1017.0 
36.0,353.0,985.0 
13.0,368.0,940.0 
24.0,389.0,876.0 
-32.0,441.0,874.0 
3.0,374.0,868.0 
-18.0,382.0,858.0 
-21.0,378.0,816.0 
2.0,260.0,789.0 
24.0,213.0,754.0 
53.0,172.0,729.0 
68.0,166.0,684.0 
58.0,181.0,659.0 
60.0,186.0,644.0 
75.0,199.0,689.0 
98.0,187.0,769.0 
83.0,155.0,769.0 
66.0,113.0,766.0 
66.0,77.0,759.0 
87.0,13.0,791.0 
157.0,-21.0,782.0 
172.0,-33.0,811.0 
177.0,-42.0,856.0 
183.0,-69.0,905.0 
75.0,-7.0,973.0 
70.0,-4.0,1016.0 
65.0,0.0,1056.0 
69.0,-54.0,1108.0 
126.0,-71.0,1109.0 
170.0,-143.0,1112.0 
198.0,-153.0,1091.0 
168.0,-179.0,1104.0 
118.0,-206.0,1101.0 
81.0,-228.0,1129.0 
60.0,-239.0,1228.0 
43.0,-226.0,1263.0 
22.0,-193.0,1271.0 
26.0,-163.0,1331.0 
77.0,-119.0,1412.0 
165.0,-55.0,1428.0 
86.0,5.0,1427.0 
-12.0,-1.0,1369.0 
-80.0,-70.0,1414.0 
-66.0,-140.0,1443.0 
-77.0,-194.0,1417.0 
-71.0,-237.0,1416.0 
-54.0,-220.0,1461.0 
17.0,-150.0,1453.0 
-43.0,-155.0,1444.0 
-36.0,-90.0,1456.0 
-29.0,37.0,1360.0 
-168.0,35.0,1328.0 
-169.0,-14.0,1335.0 
-147.0,-67.0,1384.0 
-150.0,-195.0,1364.0 
-125.0,-200.0,1377.0 
-108.0,-147.0,1410.0 
-96.0,-90.0,1449.0 
-124.0,34.0,1453.0 
-149.0,80.0,1429.0 
-173.0,112.0,1393.0 
-192.0,120.0,1242.0 
-189.0,60.0,1221.0 
-181.0,-7.0,1175.0 
-154.0,-101.0,1188.0 
-90.0,-143.0,1236.0 
-74.0,-103.0,1210.0 
-99.0,-36.0,1280.0 
-106.0,2.0,1325.0 
-135.0,36.0,1340.0 
-203.0,104.0,1320.0 
-216.0,100.0,1281.0 
-210.0,59.0,1241.0 
-181.0,-6.0,1211.0 
-71.0,-29.0,1177.0 
-72.0,-65.0,1153.0 
-45.0,-79.0,1171.0 
-52.0,-62.0,1203.0 
-56.0,-27.0,1244.0 
-68.0,10.0,1281.0 
-117.0,34.0,1310.0 
-157.0,84.0,1333.0 
-191.0,90.0,1334.0 
-216.0,78.0,1310.0 
-208.0,60.0,1289.0 
-147.0,76.0,1289.0 
-152.0,74.0,1283.0 
-171.0,99.0,1270.0 
-167.0,127.0,1353.0 
-207.0,231.0,1384.0 
-238.0,272.0,1379.0 
-275.0,277.0,1371.0 
-276.0,287.0,1328.0 
-277.0,213.0,1314.0 
-264.0,181.0,1284.0 
-248.0,163.0,1259.0 
-235.0,180.0,1206.0 
-188.0,256.0,1230.0 
-187.0,296.0,1251.0 
-211.0,309.0,1266.0 
-235.0,338.0,1277.0 
-253.0,314.0,1257.0 
-269.0,339.0,1262.0 
-298.0,302.0,1218.0 
-292.0,267.0,1197.0 
-202.0,266.0,1183.0 
-194.0,287.0,1158.0 
-170.0,319.0,1150.0 
-166.0,370.0,1196.0 
-225.0,396.0,1216.0 
-255.0,412.0,1247.0 
-311.0,373.0,1222.0 
-234.0,329.0,1181.0 
-201.0,278.0,1113.0 
-167.0,242.0,1100.0 
-146.0,226.0,1063.0 
-166.0,265.0,971.0 
-166.0,279.0,994.0 
-151.0,301.0,1003.0 
-153.0,326.0,1008.0 
-197.0,381.0,1006.0 
-185.0,375.0,1009.0 
-136.0,343.0,1025.0 
-75.0,299.0,1017.0 
-32.0,235.0,977.0 
-30.0,221.0,920.0 
-28.0,224.0,891.0 
-33.0,267.0,808.0 
-54.0,301.0,759.0 
-68.0,324.0,740.0 
-62.0,313.0,719.0 
-64.0,294.0,686.0 
-8.0,284.0,711.0 
19.0,258.0,738.0 
65.0,230.0,769.0 
113.0,215.0,806.0 
166.0,212.0,825.0 
206.0,226.0,874.0 
195.0,248.0,888.0 
130.0,277.0,899.0 
113.0,252.0,914.0 
103.0,215.0,887.0 
109.0,148.0,858.0 
153.0,-4.0,806.0 
228.0,-47.0,853.0 
302.0,-91.0,892.0 
361.0,-99.0,932.0 
328.0,-110.0,942.0 
345.0,-104.0,1021.0 
328.0,-78.0,1070.0 
340.0,-65.0,1057.0 
299.0,-85.0,1047.0 
294.0,-101.0,1047.0 
320.0,-115.0,1074.0 
311.0,-151.0,1132.0 
326.0,-161.0,1166.0 
312.0,-161.0,1176.0 
322.0,-147.0,1216.0 
305.0,-124.0,1268.0 
269.0,-74.0,1269.0 
245.0,-32.0,1261.0 
229.0,-5.0,1252.0 
232.0,0.0,1219.0 
207.0,-21.0,1179.0 
199.0,-37.0,1157.0 
204.0,-45.0,1164.0 
210.0,-43.0,1165.0 
176.0,-35.0,1152.0 
176.0,-12.0,1165.0 
191.0,15.0,1180.0 
178.0,44.0,1183.0 
184.0,61.0,1206.0 
190.0,75.0,1205.0 
18.0,33.0,1122.0 
13.0,22.0,1106.0 
8.0,16.0,1099.0 
5.0,23.0,1109.0 
8.0,41.0,1125.0 
15.0,48.0,1134.0 
8.0,58.0,1134.0 
5.0,48.0,1133.0 
14.0,17.0,1137.0 
30.0,11.0,1145.0 
27.0,0.0,1159.0 
22.0,-1.0,1167.0 
9.0,1.0,1152.0 
5.0,9.0,1152.0 
1.0,18.0,1152.0 
1.0,19.0,1137.0 
-6.0,21.0,1148.0 
-1.0,13.0,1145.0 
9.0,-3.0,1169.0 
41.0,-18.0,1200.0 
88.0,-51.0,1191.0 
90.0,-63.0,1156.0 
78.0,-88.0,1104.0 
74.0,-120.0,1095.0 
121.0,-104.0,1138.0 
133.0,-107.0,1172.0 
121.0,-127.0,1212.0 
157.0,-103.0,1347.0 
237.0,-106.0,1390.0 
244.0,-123.0,1408.0 
212.0,-135.0,1383.0 
196.0,-64.0,1448.0 
124.0,-81.0,1438.0 
95.0,-76.0,1398.0 
64.0,-88.0,1454.0 
157.0,-53.0,1537.0 
124.0,-70.0,1511.0 
105.0,-90.0,1477.0 
42.0,-112.0,1503.0 
105.0,-52.0,1458.0 
46.0,-72.0,1420.0 
26.0,-16.0,1437.0 
12.0,27.0,1501.0 
4.0,157.0,1538.0 
-10.0,237.0,1577.0 
-103.0,239.0,1477.0 
-148.0,193.0,1457.0 
-130.0,133.0,1399.0 
-153.0,113.0,1342.0 
-111.0,125.0,1293.0 
-74.0,194.0,1308.0 
-82.0,264.0,1337.0 
-151.0,338.0,1342.0 
-282.0,382.0,1297.0 
-359.0,372.0,1269.0 
-376.0,341.0,1253.0 
-300.0,343.0,1232.0 
-223.0,352.0,1214.0 
-184.0,374.0,1166.0 
-177.0,407.0,1159.0 
-211.0,433.0,1132.0 
-232.0,463.0,1119.0 
-300.0,508.0,1086.0 
-309.0,518.0,1081.0 
-325.0,497.0,1053.0 
-306.0,469.0,1006.0 
-213.0,430.0,938.0 
-142.0,434.0,935.0 
-94.0,446.0,918.0 
-84.0,464.0,816.0 
-108.0,519.0,817.0 
-134.0,556.0,815.0 
-176.0,548.0,817.0 
-148.0,510.0,792.0 
-123.0,447.0,751.0 
-118.0,391.0,713.0 
-100.0,364.0,671.0 
-50.0,366.0,620.0 
6.0,360.0,578.0 
56.0,384.0,568.0 
108.0,409.0,590.0 
128.0,465.0,654.0 
45.0,472.0,637.0 
5.0,442.0,621.0 
1.0,400.0,622.0 
10.0,254.0,601.0 
85.0,190.0,578.0 
102.0,130.0,558.0 
141.0,82.0,545.0 
262.0,36.0,643.0 
263.0,31.0,700.0 
278.0,41.0,740.0 
257.0,29.0,717.0 
225.0,20.0,700.0 
213.0,-13.0,664.0 
206.0,-54.0,633.0 
221.0,-74.0,595.0 
226.0,-196.0,582.0 
237.0,-224.0,590.0 
305.0,-233.0,680.0 
356.0,-216.0,855.0 
439.0,-113.0,945.0 
422.0,-59.0,998.0 
359.0,-3.0,1035.0 
294.0,22.0,1026.0 
238.0,-65.0,963.0 
213.0,-144.0,877.0 
207.0,-258.0,805.0 
234.0,-399.0,827.0 
344.0,-410.0,878.0 
391.0,-410.0,902.0 
414.0,-369.0,939.0 
418.0,-208.0,1043.0 
336.0,-135.0,1100.0 
241.0,-79.0,1104.0 
151.0,-119.0,1116.0 
121.0,-297.0,1140.0 
163.0,-352.0,1185.0 
206.0,-381.0,1264.0 
226.0,-307.0,1391.0 
123.0,-90.0,1544.0 
136.0,-53.0,1564.0 
121.0,-22.0,1570.0 
128.0,-64.0,1497.0 
128.0,-211.0,1444.0 
121.0,-298.0,1431.0 
108.0,-343.0,1394.0 
59.0,-332.0,1408.0 
-35.0,-183.0,1459.0 
-32.0,-87.0,1532.0 
-48.0,-11.0,1631.0 
-59.0,18.0,1684.0 
-122.0,88.0,1667.0 
-100.0,66.0,1654.0 
-46.0,37.0,1609.0 
-12.0,-56.0,1499.0 
11.0,-100.0,1439.0 
6.0,-135.0,1391.0 
1.0,-104.0,1401.0 
-23.0,-22.0,1349.0 
-109.0,9.0,1351.0 
-121.0,42.0,1365.0 
-126.0,67.0,1383.0 
-115.0,73.0,1391.0 
-43.0,47.0,1389.0 
-67.0,76.0,1374.0 
-64.0,65.0,1375.0 
-95.0,112.0,1338.0 
-95.0,125.0,1338.0 
-91.0,137.0,1348.0 
-100.0,207.0,1323.0 
-130.0,236.0,1323.0 
-141.0,256.0,1317.0 
-166.0,277.0,1315.0 
-164.0,301.0,1332.0 
-200.0,290.0,1330.0 
-205.0,235.0,1315.0 
-172.0,185.0,1272.0 
-104.0,124.0,1257.0 
-71.0,57.0,1254.0 
-110.0,69.0,1222.0 
-121.0,120.0,1218.0 
-135.0,145.0,1252.0 
-164.0,215.0,1214.0 
-169.0,237.0,1194.0 
-160.0,212.0,1158.0 
-141.0,121.0,1067.0 
-117.0,69.0,1046.0 
-92.0,36.0,1012.0 
-77.0,55.0,1013.0 
-13.0,66.0,995.0 
21.0,116.0,976.0 
27.0,136.0,968.0 
13.0,128.0,944.0 
26.0,162.0,921.0 
8.0,169.0,899.0 
1.0,170.0,899.0 
19.0,154.0,925.0 
19.0,108.0,934.0 
19.0,75.0,913.0 
6.0,54.0,902.0 
17.0,46.0,923.0 
20.0,63.0,900.0 
19.0,75.0,908.0 
44.0,87.0,913.0 
29.0,51.0,903.0 
51.0,6.0,941.0 
104.0,-8.0,1018.0 
128.0,18.0,1073.0 
103.0,28.0,1182.0 
67.0,145.0,1243.0 
38.0,191.0,1258.0 
12.0,196.0,1245.0 
4.0,121.0,1199.0 
56.0,56.0,1164.0 
74.0,-17.0,1137.0 
81.0,-77.0,1131.0 
84.0,-133.0,1081.0 
74.0,-107.0,1088.0 
61.0,-88.0,1095.0 
-41.0,26.0,1134.0 
-37.0,23.0,1126.0 
-39.0,13.0,1124.0 
-35.0,8.0,1125.0 
-26.0,13.0,1117.0 
-26.0,23.0,1112.0 
-32.0,46.0,1115.0 
-41.0,37.0,1103.0 
-55.0,42.0,1109.0 
-49.0,38.0,1108.0 
-43.0,33.0,1112.0 
-24.0,27.0,1109.0 
-18.0,22.0,1111.0 
-17.0,21.0,1109.0 
-1.0,12.0,1107.0 
-39.0,9.0,1115.0 
-54.0,11.0,1122.0 
-51.0,24.0,1114.0 
-33.0,29.0,1104.0 
-35.0,26.0,1093.0 
-19.0,16.0,1084.0 
-9.0,16.0,1071.0 
10.0,-15.0,1050.0 
-9.0,-23.0,1050.0 
-16.0,-39.0,1043.0 
7.0,-59.0,1027.0 
31.0,-50.0,1017.0 
67.0,-52.0,992.0 
89.0,-33.0,967.0 
83.0,-37.0,946.0 
116.0,-126.0,927.0 
188.0,-182.0,948.0 
235.0,-249.0,906.0 
157.0,-329.0,1051.0 
16.0,-344.0,1112.0 
42.0,-358.0,1149.0 
49.0,-373.0,1203.0 
23.0,-408.0,1260.0 
-103.0,-413.0,1278.0 
-140.0,-417.0,1283.0 
-114.0,-402.0,1284.0 
-96.0,-319.0,1281.0 
-141.0,-289.0,1292.0 
-163.0,-241.0,1275.0 
-236.0,-203.0,1284.0 
-332.0,-211.0,1304.0 
-300.0,-249.0,1313.0 
-265.0,-290.0,1346.0 
-259.0,-336.0,1410.0 
-300.0,-301.0,1412.0 
-308.0,-181.0,1373.0 
-331.0,-65.0,1327.0 
-359.0,28.0,1280.0 
-395.0,121.0,1291.0 
-372.0,136.0,1293.0 
-351.0,134.0,1322.0 
-368.0,134.0,1336.0 
-378.0,194.0,1339.0 
-392.0,244.0,1336.0 
-401.0,293.0,1326.0 
-439.0,396.0,1301.0 
-506.0,427.0,1284.0 
-478.0,460.0,1251.0 
-474.0,462.0,1254.0 
-476.0,439.0,1267.0 
-507.0,441.0,1290.0 
-508.0,446.0,1273.0 
-515.0,447.0,1267.0 
-510.0,445.0,1220.0 
-481.0,439.0,1209.0 
-481.0,431.0,1192.0 
-494.0,442.0,1189.0 
-468.0,412.0,1199.0 
-464.0,425.0,1170.0 
-470.0,421.0,1156.0 
-476.0,435.0,1163.0 
-416.0,447.0,1151.0 
-389.0,449.0,1144.0 
-369.0,448.0,1129.0 
-374.0,458.0,1079.0 
-407.0,477.0,1038.0 
-425.0,481.0,1017.0 
-442.0,481.0,992.0 
-410.0,464.0,973.0 
-293.0,421.0,1004.0 
-236.0,381.0,981.0 
-217.0,352.0,974.0 
-209.0,325.0,934.0 
-240.0,297.0,911.0 
-294.0,283.0,883.0 
-328.0,295.0,856.0 
-293.0,321.0,763.0 
-227.0,328.0,754.0 
-184.0,328.0,744.0 
-142.0,310.0,732.0 
-88.0,274.0,690.0 
-47.0,273.0,670.0 
-47.0,286.0,641.0 
-71.0,310.0,627.0 
-107.0,355.0,615.0 
-115.0,356.0,608.0 
-82.0,354.0,613.0 
-32.0,363.0,608.0 
98.0,339.0,619.0 
162.0,314.0,634.0 
184.0,291.0,651.0 
140.0,279.0,709.0 
66.0,233.0,722.0 
27.0,209.0,745.0 
-1.0,192.0,764.0 
17.0,161.0,778.0 
80.0,75.0,798.0 
127.0,21.0,800.0 
189.0,-20.0,799.0 
219.0,-64.0,803.0 
258.0,-119.0,796.0 
253.0,-101.0,781.0 
253.0,-69.0,743.0 
258.0,-45.0,729.0 
273.0,-79.0,721.0 
232.0,-140.0,747.0 
187.0,-227.0,814.0 
196.0,-395.0,910.0 
